answered,blockNum,choice,condition,corResp,correct,correct_response,explo,fb,internal_node_id,isStable_1,isStable_2,isStable_3,key_press,newBlock,part,persev,persevResp,rt,sessNum,stableAS,stimulus,subject,task,time_elapsed,training,trap,trial_index,trial_type,trialsInBlock
true,1,0,0,2,false,d,true,false,0.0-2.0-0.0-0.0-3.0,0,0,0,81,true,stim,false,-1,429,3,0,2,63806,WMM2,120451,false,false,88,image-keyboard-response,1
true,1,1,0,0,false,q,true,false,0.0-2.0-0.0-0.1-3.1,0,0,0,90,false,stim,false,-1,502,3,0,1,63806,WMM2,122482,false,false,91,image-keyboard-response,2
true,1,0,0,2,false,d,true,false,0.0-2.0-0.0-0.2-3.2,0,0,0,81,false,stim,false,-1,495,3,0,0,63806,WMM2,124514,false,false,94,image-keyboard-response,3
true,1,1,0,2,false,d,true,false,0.0-2.0-0.0-0.3-3.3,0,0,0,90,false,stim,false,-1,882,3,0,2,63806,WMM2,126923,false,false,97,image-keyboard-response,4
true,1,2,0,0,false,q,true,false,0.0-2.0-0.0-0.4-3.4,0,0,0,68,false,stim,false,-1,733,3,0,1,63806,WMM2,129195,false,false,100,image-keyboard-response,5
true,1,1,0,0,false,q,true,false,0.0-2.0-0.0-0.5-3.5,0,0,0,90,false,stim,false,-1,405,3,0,1,63806,WMM2,131146,false,false,103,image-keyboard-response,6
true,1,1,0,2,false,d,true,false,0.0-2.0-0.0-0.6-3.6,0,0,0,90,false,stim,false,-1,682,3,0,0,63806,WMM2,133362,false,false,106,image-keyboard-response,7
true,1,2,0,2,true,d,false,false,0.0-2.0-0.0-0.7-3.7,0,0,0,68,false,stim,false,-1,903,3,0,2,63806,WMM2,135803,false,true,109,image-keyboard-response,8
true,1,0,0,2,false,d,true,false,0.0-2.0-0.0-0.8-3.8,0,0,0,81,false,stim,false,-1,790,3,0,0,63806,WMM2,138131,false,false,112,image-keyboard-response,9
true,1,0,0,2,false,d,true,false,0.0-2.0-0.1-0.9-3.9,0,0,0,81,false,stim,false,-1,575,3,0,0,63806,WMM2,140235,false,false,115,image-keyboard-response,10
true,1,0,0,2,false,d,true,false,0.0-2.0-0.1-0.10-3.10,0,0,0,81,false,stim,false,-1,881,3,0,2,63806,WMM2,142642,false,false,118,image-keyboard-response,11
true,1,1,0,0,false,q,true,false,0.0-2.0-0.1-0.11-3.11,0,0,0,90,false,stim,false,-1,711,3,0,1,63806,WMM2,144891,false,false,121,image-keyboard-response,12
true,1,1,0,2,false,d,true,false,0.0-2.0-0.1-0.12-3.12,0,0,0,90,false,stim,false,-1,1134,3,0,2,63806,WMM2,147555,false,false,124,image-keyboard-response,13
true,1,2,0,2,true,d,false,true,0.0-2.0-0.1-0.13-3.13,0,0,0,68,false,stim,false,-1,1265,3,0,0,63806,WMM2,150354,false,false,127,image-keyboard-response,14
true,1,2,0,0,false,q,true,false,0.0-2.0-0.1-0.14-3.14,0,0,0,68,false,stim,false,-1,819,3,0,1,63806,WMM2,152698,false,false,130,image-keyboard-response,15
true,1,0,0,2,false,d,true,false,0.0-2.0-0.1-0.15-3.15,0,0,0,81,false,stim,false,-1,1182,3,0,2,63806,WMM2,155403,false,false,133,image-keyboard-response,16
true,1,0,0,0,true,q,false,true,0.0-2.0-0.1-0.16-3.16,0,0,0,81,false,stim,false,-1,1031,3,0,1,63806,WMM2,157970,false,false,136,image-keyboard-response,17
true,1,2,0,2,true,d,false,true,0.0-2.0-0.1-0.17-3.17,0,0,0,68,false,stim,false,-1,613,3,0,0,63806,WMM2,160123,false,false,139,image-keyboard-response,18
true,1,0,0,0,true,q,false,true,0.0-2.0-0.2-0.18-3.18,0,0,0,81,false,stim,false,-1,359,3,0,1,63806,WMM2,162018,false,false,142,image-keyboard-response,19
true,1,1,0,2,false,d,true,false,0.0-2.0-0.2-0.19-3.19,0,0,0,90,false,stim,false,-1,633,3,0,2,63806,WMM2,164195,false,false,145,image-keyboard-response,20
true,1,0,0,0,true,q,false,true,0.0-2.0-0.2-0.20-3.20,0,0,0,81,false,stim,false,-1,546,3,0,1,63806,WMM2,166267,false,false,148,image-keyboard-response,21
true,1,2,0,2,true,d,false,true,0.0-2.0-0.2-0.21-3.21,0,0,0,68,false,stim,false,-1,362,3,0,0,63806,WMM2,168162,false,false,151,image-keyboard-response,22
true,1,0,0,0,true,q,false,true,0.0-2.0-0.2-0.22-3.22,0,0,0,81,false,stim,false,-1,525,3,0,1,63806,WMM2,170226,false,false,154,image-keyboard-response,23
true,1,0,0,2,false,d,true,true,0.0-2.0-0.2-0.23-3.23,0,0,0,81,false,stim,false,-1,402,3,0,2,63806,WMM2,172162,false,true,157,image-keyboard-response,24
true,1,2,0,2,true,d,false,true,0.0-2.0-0.2-0.24-3.24,0,0,0,68,false,stim,false,-1,909,3,0,0,63806,WMM2,174611,false,false,160,image-keyboard-response,25
true,1,0,0,2,false,d,true,false,0.0-2.0-0.2-0.25-3.25,0,0,0,81,false,stim,false,-1,472,3,0,2,63806,WMM2,176617,false,false,163,image-keyboard-response,26
true,1,2,0,2,true,d,false,true,0.0-2.0-0.2-0.26-3.26,0,0,0,68,false,stim,false,-1,588,3,0,0,63806,WMM2,178739,false,false,166,image-keyboard-response,27
true,1,2,0,2,true,d,false,false,0.0-2.0-0.3-0.27-3.27,0,0,0,68,false,stim,false,-1,450,3,0,2,63806,WMM2,180730,false,true,169,image-keyboard-response,28
true,1,0,0,0,true,q,false,true,0.0-2.0-0.3-0.28-3.28,0,0,0,81,false,stim,false,-1,414,3,0,1,63806,WMM2,182674,false,false,172,image-keyboard-response,29
true,1,0,0,0,true,q,false,true,0.0-2.0-0.3-0.29-3.29,0,0,0,81,false,stim,false,-1,554,3,0,1,63806,WMM2,184754,false,false,175,image-keyboard-response,30
true,1,2,0,2,true,d,false,true,0.0-2.0-0.3-0.30-3.30,0,0,0,68,false,stim,false,-1,635,3,0,0,63806,WMM2,186914,false,false,178,image-keyboard-response,31
true,1,2,0,2,true,d,false,true,0.0-2.0-0.3-0.31-3.31,0,0,0,68,false,stim,false,-1,554,3,0,0,63806,WMM2,188994,false,false,181,image-keyboard-response,32
true,1,2,0,2,true,d,false,true,0.0-2.0-0.3-0.32-3.32,0,0,0,68,false,stim,false,-1,538,3,0,0,63806,WMM2,191057,false,false,184,image-keyboard-response,33
true,1,0,0,0,true,q,false,false,0.0-2.0-0.3-0.33-3.33,0,0,0,81,false,stim,false,-1,540,3,0,1,63806,WMM2,193130,false,true,187,image-keyboard-response,34
true,1,0,0,2,false,d,true,false,0.0-2.0-0.3-0.34-3.34,0,0,0,81,false,stim,false,-1,731,3,0,2,63806,WMM2,195402,false,false,190,image-keyboard-response,35
true,1,0,0,2,false,d,true,false,0.0-2.0-0.3-0.35-3.35,0,0,0,81,false,stim,false,-1,471,3,0,2,63806,WMM2,197402,false,false,193,image-keyboard-response,36
true,1,2,0,2,true,d,false,true,0.0-2.0-0.4-0.36-3.36,0,0,0,68,false,stim,false,-1,552,3,0,0,63806,WMM2,199482,false,false,196,image-keyboard-response,37
true,1,0,0,0,true,q,false,true,0.0-2.0-0.4-0.37-3.37,0,0,0,81,false,stim,false,-1,552,3,0,1,63806,WMM2,201562,false,false,199,image-keyboard-response,38
true,1,2,0,2,true,d,false,false,0.0-2.0-0.4-0.38-3.38,0,0,0,68,false,stim,false,-1,570,3,0,0,63806,WMM2,203650,false,true,202,image-keyboard-response,39
true,1,1,0,2,false,d,true,false,0.0-2.0-0.4-0.39-3.39,0,0,0,90,false,stim,false,-1,468,3,0,2,63806,WMM2,205659,false,false,205,image-keyboard-response,40
true,1,0,0,2,false,d,true,false,0.0-2.0-0.4-0.40-3.40,0,0,0,81,false,stim,false,-1,572,3,0,2,63806,WMM2,207762,false,false,208,image-keyboard-response,41
true,1,2,0,2,true,d,false,true,0.0-2.0-0.4-0.41-3.41,0,0,0,68,false,stim,false,-1,408,3,0,0,63806,WMM2,209699,false,false,211,image-keyboard-response,42
true,1,0,0,0,true,q,false,true,0.0-2.0-0.4-0.42-3.42,0,0,0,81,false,stim,false,-1,571,3,0,1,63806,WMM2,211802,false,false,214,image-keyboard-response,43
true,1,2,0,2,true,d,false,true,0.0-2.0-0.4-0.43-3.43,0,0,0,68,false,stim,false,-1,368,3,0,2,63806,WMM2,213698,false,false,217,image-keyboard-response,44
true,1,0,0,0,true,q,false,true,0.0-2.0-0.4-0.44-3.44,0,0,0,81,false,stim,false,-1,595,3,0,1,63806,WMM2,215834,false,false,220,image-keyboard-response,45
true,1,2,0,2,true,d,false,true,0.0-2.0-0.5-0.45-3.45,0,0,0,68,false,stim,false,-1,507,3,0,0,63806,WMM2,217866,false,false,223,image-keyboard-response,46
true,1,2,0,2,true,d,false,true,0.0-2.0-0.5-0.46-3.46,0,0,0,68,false,stim,false,-1,362,3,0,2,63806,WMM2,219762,false,false,226,image-keyboard-response,47
true,1,0,0,0,true,q,false,true,0.0-2.0-0.5-0.47-3.47,0,0,0,81,false,stim,false,-1,535,3,1,1,63806,WMM2,221835,false,false,229,image-keyboard-response,48
true,1,0,0,0,true,q,false,false,0.0-2.0-0.5-0.48-3.48,0,0,0,81,false,stim,false,-1,538,3,1,1,63806,WMM2,223899,false,true,232,image-keyboard-response,49
true,1,2,0,2,true,d,false,true,0.0-2.0-0.5-0.49-3.49,0,0,0,68,false,stim,false,-1,420,3,1,0,63806,WMM2,225851,false,false,235,image-keyboard-response,50
true,1,2,0,2,true,d,false,true,0.0-2.0-0.5-0.50-3.50,0,0,0,68,false,stim,false,-1,582,3,0,2,63806,WMM2,227962,false,false,238,image-keyboard-response,51
true,1,0,0,0,true,q,false,true,0.0-2.0-0.5-0.51-3.51,0,0,0,81,false,stim,false,-1,566,3,1,1,63806,WMM2,230067,false,false,241,image-keyboard-response,52
true,1,2,0,2,true,d,false,true,0.0-2.0-0.5-0.52-3.52,0,0,0,68,false,stim,false,-1,452,3,1,0,63806,WMM2,232042,false,false,244,image-keyboard-response,53
true,1,2,0,2,true,d,false,true,0.0-2.0-0.5-0.53-3.53,0,0,0,68,false,stim,false,-1,767,3,0,2,63806,WMM2,234346,false,false,247,image-keyboard-response,54
true,1,2,0,2,true,d,false,true,0.0-2.0-0.6-0.54-3.54,0,0,0,68,false,stim,false,-1,418,3,0,2,63806,WMM2,236299,false,false,250,image-keyboard-response,55
true,1,0,0,0,true,q,false,true,0.0-2.0-0.6-0.55-3.55,0,0,0,81,false,stim,false,-1,458,3,1,1,63806,WMM2,238298,false,false,253,image-keyboard-response,56
true,1,0,0,0,true,q,false,false,0.0-2.0-0.6-0.56-3.56,0,0,0,81,false,stim,false,-1,401,3,1,1,63806,WMM2,240242,false,true,256,image-keyboard-response,57
true,2,2,3,2,true,d,false,true,0.0-2.0-0.6-0.57-3.57,1,1,0,68,true,stim,false,2,974,3,1,0,63806,WMM2,242754,false,false,259,image-keyboard-response,1
true,2,2,3,0,false,q,false,false,0.0-2.0-0.6-0.58-3.58,1,1,0,68,false,stim,true,2,1152,3,0,2,63806,WMM2,245441,false,false,262,image-keyboard-response,2
true,2,2,3,2,true,d,false,true,0.0-2.0-0.6-0.59-3.59,1,1,0,68,false,stim,false,2,469,3,1,0,63806,WMM2,247434,false,false,265,image-keyboard-response,3
true,2,2,3,0,false,q,false,false,0.0-2.0-0.6-0.60-3.60,1,1,0,68,false,stim,true,2,506,3,0,2,63806,WMM2,249466,false,false,268,image-keyboard-response,4
true,2,2,3,2,true,d,false,true,0.0-2.0-0.6-0.61-3.61,1,1,0,68,false,stim,false,2,570,3,1,0,63806,WMM2,251570,false,false,271,image-keyboard-response,5
true,2,0,3,0,true,q,false,true,0.0-2.0-0.6-0.62-3.62,1,1,0,81,false,stim,false,0,520,3,1,1,63806,WMM2,253610,false,false,274,image-keyboard-response,6
true,2,2,3,0,false,q,false,false,0.0-2.0-0.7-0.63-3.63,1,1,0,68,false,stim,true,2,1134,3,0,2,63806,WMM2,256274,false,false,277,image-keyboard-response,7
true,2,2,3,2,true,d,false,false,0.0-2.0-0.7-0.64-3.64,1,1,0,68,false,stim,false,2,473,3,1,0,63806,WMM2,258274,false,true,280,image-keyboard-response,8
true,2,2,3,2,true,d,false,true,0.0-2.0-0.7-0.65-3.65,1,1,0,68,false,stim,false,2,394,3,1,0,63806,WMM2,260195,false,false,283,image-keyboard-response,9
true,2,2,3,2,true,d,false,false,0.0-2.0-0.7-0.66-3.66,1,1,0,68,false,stim,false,2,522,3,1,0,63806,WMM2,262242,false,true,286,image-keyboard-response,10
true,2,0,3,0,true,q,false,false,0.0-2.0-0.7-0.67-3.67,1,1,0,81,false,stim,false,0,552,3,1,1,63806,WMM2,264322,false,true,289,image-keyboard-response,11
true,2,0,3,0,true,q,false,true,0.0-2.0-0.7-0.68-3.68,1,1,0,81,false,stim,false,0,512,3,1,1,63806,WMM2,266363,false,false,292,image-keyboard-response,12
true,2,1,3,0,false,q,true,true,0.0-2.0-0.7-0.69-3.69,1,1,0,90,false,stim,false,2,640,3,0,2,63806,WMM2,268530,false,true,295,image-keyboard-response,13
true,2,0,3,0,true,q,false,true,0.0-2.0-0.7-0.70-3.70,1,1,0,81,false,stim,false,0,580,3,1,1,63806,WMM2,270651,false,false,298,image-keyboard-response,14
true,2,1,3,0,false,q,true,false,0.0-2.0-0.7-0.71-3.71,1,1,0,90,false,stim,false,2,589,3,0,2,63806,WMM2,272787,false,false,301,image-keyboard-response,15
true,2,1,3,0,false,q,true,false,0.0-2.0-0.8-0.72-3.72,1,1,0,90,false,stim,false,2,404,3,0,2,63806,WMM2,274714,false,false,304,image-keyboard-response,16
true,2,2,3,2,true,d,false,false,0.0-2.0-0.8-0.73-3.73,1,1,0,68,false,stim,false,2,593,3,1,0,63806,WMM2,276842,false,true,307,image-keyboard-response,17
true,2,1,3,0,false,q,true,false,0.0-2.0-0.8-0.74-3.74,1,1,0,90,false,stim,false,2,632,3,0,2,63806,WMM2,279002,false,false,310,image-keyboard-response,18
true,2,2,3,2,true,d,false,false,0.0-2.0-0.8-0.75-3.75,1,1,0,68,false,stim,false,2,649,3,1,0,63806,WMM2,281178,false,true,313,image-keyboard-response,19
true,2,0,3,0,true,q,false,false,0.0-2.0-0.8-0.76-3.76,1,1,0,81,false,stim,false,0,636,3,1,1,63806,WMM2,283346,false,true,316,image-keyboard-response,20
true,2,0,3,0,true,q,false,true,0.0-2.0-0.8-0.77-3.77,1,1,0,81,false,stim,false,0,458,3,1,1,63806,WMM2,285338,false,false,319,image-keyboard-response,21
true,2,0,3,0,true,q,false,true,0.0-2.0-0.8-0.78-3.78,1,1,0,81,false,stim,false,0,620,3,1,1,63806,WMM2,287490,false,false,322,image-keyboard-response,22
true,2,2,3,2,true,d,false,true,0.0-2.0-0.8-0.79-3.79,1,1,0,68,false,stim,false,2,524,3,1,0,63806,WMM2,289554,false,false,325,image-keyboard-response,23
true,2,2,3,0,false,q,false,false,0.0-2.0-0.8-0.80-3.80,1,1,0,68,false,stim,true,2,328,3,0,2,63806,WMM2,291418,false,false,328,image-keyboard-response,24
true,2,2,3,2,true,d,false,true,0.0-2.0-0.9-0.81-3.81,1,1,0,68,false,stim,false,2,540,3,1,0,63806,WMM2,293490,false,false,331,image-keyboard-response,25
true,2,0,3,0,true,q,false,true,0.0-2.0-0.9-0.82-3.82,1,1,0,81,false,stim,false,0,612,3,1,1,63806,WMM2,295642,false,false,334,image-keyboard-response,26
true,2,0,3,0,true,q,false,true,0.0-2.0-0.9-0.83-3.83,1,1,0,81,false,stim,false,0,471,3,1,1,63806,WMM2,297641,false,false,337,image-keyboard-response,27
true,2,2,3,2,true,d,false,true,0.0-2.0-0.9-0.84-3.84,1,1,0,68,false,stim,false,2,568,3,1,0,63806,WMM2,299738,false,false,340,image-keyboard-response,28
true,2,0,3,0,true,q,false,true,0.0-2.0-0.9-0.85-3.85,1,1,0,81,false,stim,false,2,372,3,0,2,63806,WMM2,301643,false,false,343,image-keyboard-response,29
true,2,0,3,0,true,q,false,true,0.0-2.0-0.9-0.86-3.86,1,1,0,81,false,stim,false,0,457,3,1,1,63806,WMM2,303626,false,false,346,image-keyboard-response,30
true,2,2,3,2,true,d,false,true,0.0-2.0-0.9-0.87-3.87,1,1,0,68,false,stim,false,2,484,3,1,0,63806,WMM2,305634,false,false,349,image-keyboard-response,31
true,2,0,3,0,true,q,false,true,0.0-2.0-0.9-0.88-3.88,1,1,0,81,false,stim,false,2,601,3,0,2,63806,WMM2,307770,false,false,352,image-keyboard-response,32
true,2,0,3,0,true,q,false,true,0.0-2.0-0.9-0.89-3.89,1,1,0,81,false,stim,false,2,632,3,1,2,63806,WMM2,309922,false,false,355,image-keyboard-response,33
true,2,0,3,0,true,q,false,true,0.0-2.0-0.10-0.90-3.90,1,1,0,81,false,stim,false,2,536,3,1,2,63806,WMM2,311986,false,false,358,image-keyboard-response,34
true,2,0,3,0,true,q,false,true,0.0-2.0-0.10-0.91-3.91,1,1,0,81,false,stim,false,0,492,3,1,1,63806,WMM2,314002,false,false,361,image-keyboard-response,35
true,2,0,3,0,true,q,false,false,0.0-2.0-0.10-0.92-3.92,1,1,0,81,false,stim,false,2,537,3,1,2,63806,WMM2,316066,false,true,364,image-keyboard-response,36
true,2,2,3,2,true,d,false,true,0.0-2.0-0.10-0.93-3.93,1,1,0,68,false,stim,false,2,654,3,0,0,63806,WMM2,318234,false,false,367,image-keyboard-response,37
true,2,0,3,0,true,q,false,true,0.0-2.0-0.10-0.94-3.94,1,1,0,81,false,stim,false,2,410,3,1,2,63806,WMM2,320170,false,false,370,image-keyboard-response,38
true,2,0,3,0,true,q,false,true,0.0-2.0-0.10-0.95-3.95,1,1,0,81,false,stim,false,0,413,3,1,1,63806,WMM2,322123,false,false,373,image-keyboard-response,39
true,2,2,3,2,true,d,false,true,0.0-2.0-0.10-0.96-3.96,1,1,0,68,false,stim,false,2,440,3,0,0,63806,WMM2,324090,false,false,376,image-keyboard-response,40
true,2,2,3,2,true,d,false,true,0.0-2.0-0.10-0.97-3.97,1,1,0,68,false,stim,false,2,436,3,0,0,63806,WMM2,326065,false,false,379,image-keyboard-response,41
true,2,0,3,0,true,q,false,true,0.0-2.0-0.10-0.98-3.98,1,1,0,81,false,stim,false,0,534,3,1,1,63806,WMM2,328114,false,false,382,image-keyboard-response,42
true,3,0,4,0,true,q,false,true,0.0-2.0-0.11-0.99-3.99,0,1,1,81,true,stim,false,0,737,3,1,2,63806,WMM2,330386,false,false,385,image-keyboard-response,1
true,3,0,4,0,true,q,false,true,0.0-2.0-0.11-0.100-3.100,0,1,1,81,false,stim,false,0,402,3,1,2,63806,WMM2,332298,false,false,388,image-keyboard-response,2
true,3,0,4,0,true,q,false,true,0.0-2.0-0.11-0.101-3.101,0,1,1,81,false,stim,false,0,550,3,1,1,63806,WMM2,334370,false,false,391,image-keyboard-response,3
true,3,0,4,2,false,d,true,false,0.0-2.0-0.11-0.102-3.102,0,1,1,81,false,stim,false,2,368,3,0,0,63806,WMM2,336258,false,false,394,image-keyboard-response,4
true,3,0,4,0,true,q,false,false,0.0-2.0-0.11-0.103-3.103,0,1,1,81,false,stim,false,0,492,3,1,2,63806,WMM2,338282,false,true,397,image-keyboard-response,5
true,3,0,4,0,true,q,false,false,0.0-2.0-0.11-0.104-3.104,0,1,1,81,false,stim,false,0,623,3,1,1,63806,WMM2,340442,false,true,400,image-keyboard-response,6
true,3,2,4,2,true,d,false,true,0.0-2.0-0.11-0.105-3.105,0,1,1,68,false,stim,false,2,508,3,0,0,63806,WMM2,342499,false,false,403,image-keyboard-response,7
true,3,2,4,2,true,d,false,true,0.0-2.0-0.11-0.106-3.106,0,1,1,68,false,stim,false,2,635,3,0,0,63806,WMM2,344665,false,false,406,image-keyboard-response,8
true,3,0,4,0,true,q,false,true,0.0-2.0-0.11-0.107-3.107,0,1,1,81,false,stim,false,0,526,3,1,1,63806,WMM2,346721,false,false,409,image-keyboard-response,9
true,3,2,4,2,true,d,false,true,0.0-2.0-0.12-0.108-3.108,0,1,1,68,false,stim,false,2,440,3,0,0,63806,WMM2,348690,false,false,412,image-keyboard-response,10
true,3,0,4,0,true,q,false,true,0.0-2.0-0.12-0.109-3.109,0,1,1,81,false,stim,false,0,468,3,1,1,63806,WMM2,350698,false,false,415,image-keyboard-response,11
true,3,2,4,2,true,d,false,true,0.0-2.0-0.12-0.110-3.110,0,1,1,68,false,stim,false,2,588,3,0,0,63806,WMM2,352817,false,false,418,image-keyboard-response,12
true,3,0,4,0,true,q,false,false,0.0-2.0-0.12-0.111-3.111,0,1,1,81,false,stim,false,0,506,3,1,1,63806,WMM2,354841,false,true,421,image-keyboard-response,13
true,3,0,4,0,true,q,false,true,0.0-2.0-0.12-0.112-3.112,0,1,1,81,false,stim,false,0,701,3,1,2,63806,WMM2,357070,false,false,424,image-keyboard-response,14
true,3,0,4,0,true,q,false,true,0.0-2.0-0.12-0.113-3.113,0,1,1,81,false,stim,false,0,536,3,1,2,63806,WMM2,359146,false,false,427,image-keyboard-response,15
true,3,2,4,2,true,d,false,true,0.0-2.0-0.12-0.114-3.114,0,1,1,68,false,stim,false,2,492,3,0,0,63806,WMM2,361162,false,false,430,image-keyboard-response,16
true,3,0,4,0,true,q,false,true,0.0-2.0-0.12-0.115-3.115,0,1,1,81,false,stim,false,0,489,3,1,2,63806,WMM2,363178,false,false,433,image-keyboard-response,17
true,3,0,4,0,true,q,false,true,0.0-2.0-0.12-0.116-3.116,0,1,1,81,false,stim,false,0,362,3,1,1,63806,WMM2,365082,false,false,436,image-keyboard-response,18
true,3,0,4,0,true,q,false,false,0.0-2.0-0.13-0.117-3.117,0,1,1,81,false,stim,false,0,472,3,1,2,63806,WMM2,367082,false,true,439,image-keyboard-response,19
true,3,0,4,0,true,q,false,true,0.0-2.0-0.13-0.118-3.118,0,1,1,81,false,stim,false,0,512,3,1,2,63806,WMM2,369122,false,false,442,image-keyboard-response,20
true,3,2,4,2,true,d,false,true,0.0-2.0-0.13-0.119-3.119,0,1,1,68,false,stim,false,2,603,3,1,0,63806,WMM2,371259,false,false,445,image-keyboard-response,21
true,3,2,4,2,true,d,false,false,0.0-2.0-0.13-0.120-3.120,0,1,1,68,false,stim,false,2,580,3,1,0,63806,WMM2,373370,false,true,448,image-keyboard-response,22
true,3,0,4,0,true,q,false,true,0.0-2.0-0.13-0.121-3.121,0,1,1,81,false,stim,false,0,451,3,0,2,63806,WMM2,375362,false,false,451,image-keyboard-response,23
true,3,0,4,0,true,q,false,true,0.0-2.0-0.13-0.122-3.122,0,1,1,81,false,stim,false,0,560,3,1,1,63806,WMM2,377450,false,false,454,image-keyboard-response,24
true,3,0,4,0,true,q,false,true,0.0-2.0-0.13-0.123-3.123,0,1,1,81,false,stim,false,0,356,3,1,1,63806,WMM2,379346,false,false,457,image-keyboard-response,25
true,3,0,4,0,true,q,false,true,0.0-2.0-0.13-0.124-3.124,0,1,1,81,false,stim,false,0,484,3,1,1,63806,WMM2,381354,false,false,460,image-keyboard-response,26
true,3,2,4,2,true,d,false,false,0.0-2.0-0.13-0.125-3.125,0,1,1,68,false,stim,false,2,424,3,1,0,63806,WMM2,383314,false,true,463,image-keyboard-response,27
true,3,0,4,0,true,q,false,false,0.0-2.0-0.14-0.126-3.126,0,1,1,81,false,stim,false,0,530,3,1,1,63806,WMM2,385370,false,true,466,image-keyboard-response,28
true,3,0,4,0,true,q,false,true,0.0-2.0-0.14-0.127-3.127,0,1,1,81,false,stim,false,0,692,3,0,2,63806,WMM2,387602,false,false,469,image-keyboard-response,29
true,3,0,4,0,true,q,false,true,0.0-2.0-0.14-0.128-3.128,0,1,1,81,false,stim,false,0,576,3,0,2,63806,WMM2,389706,false,false,472,image-keyboard-response,30
true,4,0,3,0,true,q,false,true,0.0-2.0-0.14-0.129-3.129,1,1,0,81,true,stim,false,0,460,3,1,1,63806,WMM2,391690,false,false,475,image-keyboard-response,1
true,4,0,3,1,false,z,false,false,0.0-2.0-0.14-0.130-3.130,1,1,0,81,false,stim,true,0,559,3,0,2,63806,WMM2,393778,false,false,478,image-keyboard-response,2
true,4,0,3,0,true,q,false,true,0.0-2.0-0.14-0.131-3.131,1,1,0,81,false,stim,false,0,389,3,1,1,63806,WMM2,395698,false,false,481,image-keyboard-response,3
true,4,0,3,2,false,d,true,false,0.0-2.0-0.14-0.132-3.132,1,1,0,81,false,stim,false,2,451,3,1,0,63806,WMM2,397690,false,false,484,image-keyboard-response,4
true,4,2,3,2,true,d,false,true,0.0-2.0-0.14-0.133-3.133,1,1,0,68,false,stim,false,2,468,3,1,0,63806,WMM2,399698,false,false,487,image-keyboard-response,5
true,4,2,3,2,true,d,false,true,0.0-2.0-0.14-0.134-3.134,1,1,0,68,false,stim,false,2,373,3,1,0,63806,WMM2,401602,false,false,490,image-keyboard-response,6
true,4,0,3,0,true,q,false,false,0.0-2.0-0.15-0.135-3.135,1,1,0,81,false,stim,false,0,523,3,1,1,63806,WMM2,403642,false,true,493,image-keyboard-response,7
true,4,0,3,1,false,z,false,false,0.0-2.0-0.15-0.136-3.136,1,1,0,81,false,stim,true,0,505,3,0,2,63806,WMM2,405676,false,false,496,image-keyboard-response,8
true,4,2,3,2,true,d,false,true,0.0-2.0-0.15-0.137-3.137,1,1,0,68,false,stim,false,2,535,3,1,0,63806,WMM2,407746,false,false,499,image-keyboard-response,9
true,4,0,3,1,false,z,false,false,0.0-2.0-0.15-0.138-3.138,1,1,0,81,false,stim,true,0,488,3,0,2,63806,WMM2,409778,false,false,502,image-keyboard-response,10
true,4,2,3,2,true,d,false,true,0.0-2.0-0.15-0.139-3.139,1,1,0,68,false,stim,false,2,597,3,1,0,63806,WMM2,411906,false,false,505,image-keyboard-response,11
true,4,0,3,0,true,q,false,true,0.0-2.0-0.15-0.140-3.140,1,1,0,81,false,stim,false,0,739,3,1,1,63806,WMM2,414178,false,false,508,image-keyboard-response,12
true,4,0,3,0,true,q,false,true,0.0-2.0-0.15-0.141-3.141,1,1,0,81,false,stim,false,0,579,3,1,1,63806,WMM2,416298,false,false,511,image-keyboard-response,13
true,4,2,3,2,true,d,false,false,0.0-2.0-0.15-0.142-3.142,1,1,0,68,false,stim,false,2,603,3,1,0,63806,WMM2,418442,false,true,514,image-keyboard-response,14
true,4,2,3,1,false,z,true,false,0.0-2.0-0.15-0.143-3.143,1,1,0,68,false,stim,false,0,430,3,0,2,63806,WMM2,420409,false,false,517,image-keyboard-response,15
true,4,0,3,0,true,q,false,true,0.0-2.0-0.16-0.144-3.144,1,1,0,81,false,stim,false,0,558,3,1,1,63806,WMM2,422498,false,false,520,image-keyboard-response,16
true,4,0,3,0,true,q,false,true,0.0-2.0-0.16-0.145-3.145,1,1,0,81,false,stim,false,0,563,3,1,1,63806,WMM2,424594,false,false,523,image-keyboard-response,17
true,4,0,3,1,false,z,false,true,0.0-2.0-0.16-0.146-3.146,1,1,0,81,false,stim,true,0,650,3,0,2,63806,WMM2,426770,false,true,526,image-keyboard-response,18
true,4,0,3,1,false,z,false,false,0.0-2.0-0.16-0.147-3.147,1,1,0,81,false,stim,true,0,524,3,0,2,63806,WMM2,428833,false,false,529,image-keyboard-response,19
true,4,2,3,2,true,d,false,true,0.0-2.0-0.16-0.148-3.148,1,1,0,68,false,stim,false,2,635,3,1,0,63806,WMM2,430994,false,false,532,image-keyboard-response,20
true,4,0,3,1,false,z,false,false,0.0-2.0-0.16-0.149-3.149,1,1,0,81,false,stim,true,0,395,3,0,2,63806,WMM2,432914,false,false,535,image-keyboard-response,21
true,4,2,3,2,true,d,false,true,0.0-2.0-0.16-0.150-3.150,1,1,0,68,false,stim,false,2,635,3,1,0,63806,WMM2,435074,false,false,538,image-keyboard-response,22
true,4,2,3,2,true,d,false,true,0.0-2.0-0.16-0.151-3.151,1,1,0,68,false,stim,false,2,708,3,1,0,63806,WMM2,437297,false,false,541,image-keyboard-response,23
true,4,0,3,0,true,q,false,true,0.0-2.0-0.16-0.152-3.152,1,1,0,81,false,stim,false,0,581,3,1,1,63806,WMM2,439410,false,false,544,image-keyboard-response,24
true,4,2,3,2,true,d,false,true,0.0-2.0-0.17-0.153-3.153,1,1,0,68,false,stim,false,2,646,3,1,0,63806,WMM2,441586,false,false,547,image-keyboard-response,25
true,4,1,3,1,true,z,false,true,0.0-2.0-0.17-0.154-3.154,1,1,0,90,false,stim,false,0,402,3,0,2,63806,WMM2,443512,false,false,550,image-keyboard-response,26
true,4,1,3,1,true,z,false,false,0.0-2.0-0.17-0.155-3.155,1,1,0,90,false,stim,false,0,371,3,0,2,63806,WMM2,445409,false,true,553,image-keyboard-response,27
true,4,0,3,0,true,q,false,true,0.0-2.0-0.17-0.156-3.156,1,1,0,81,false,stim,false,0,483,3,0,1,63806,WMM2,447433,false,false,556,image-keyboard-response,28
true,4,0,3,0,true,q,false,true,0.0-2.0-0.17-0.157-3.157,1,1,0,81,false,stim,false,0,466,3,0,1,63806,WMM2,449426,false,false,559,image-keyboard-response,29
true,4,1,3,1,true,z,false,true,0.0-2.0-0.17-0.158-3.158,1,1,0,90,false,stim,false,0,416,3,1,2,63806,WMM2,451362,false,false,562,image-keyboard-response,30
true,4,2,3,2,true,d,false,true,0.0-2.0-0.17-0.159-3.159,1,1,0,68,false,stim,false,2,485,3,0,0,63806,WMM2,453386,false,false,565,image-keyboard-response,31
true,4,2,3,2,true,d,false,true,0.0-2.0-0.17-0.160-3.160,1,1,0,68,false,stim,false,2,435,3,0,0,63806,WMM2,455345,false,false,568,image-keyboard-response,32
true,4,0,3,0,true,q,false,true,0.0-2.0-0.17-0.161-3.161,1,1,0,81,false,stim,false,0,554,3,0,1,63806,WMM2,457434,false,false,571,image-keyboard-response,33
true,4,1,3,1,true,z,false,false,0.0-2.0-0.18-0.162-3.162,1,1,0,90,false,stim,false,0,383,3,1,2,63806,WMM2,459354,false,true,574,image-keyboard-response,34
true,4,0,3,0,true,q,false,false,0.0-2.0-0.18-0.163-3.163,1,1,0,81,false,stim,false,0,474,3,0,1,63806,WMM2,461354,false,true,577,image-keyboard-response,35
true,4,2,3,2,true,d,false,true,0.0-2.0-0.18-0.164-3.164,1,1,0,68,false,stim,false,2,594,3,0,0,63806,WMM2,463473,false,false,580,image-keyboard-response,36
true,4,0,3,0,true,q,false,true,0.0-2.0-0.18-0.165-3.165,1,1,0,81,false,stim,false,0,514,3,0,1,63806,WMM2,465514,false,false,583,image-keyboard-response,37
true,5,0,1,1,false,z,false,false,0.0-2.0-0.18-0.166-3.166,0,0,1,81,true,stim,true,0,468,3,0,1,63806,WMM2,467514,false,false,586,image-keyboard-response,1
true,5,2,1,0,false,q,false,false,0.0-2.0-0.18-0.167-3.167,0,0,1,68,false,stim,true,2,443,3,0,0,63806,WMM2,469481,false,false,589,image-keyboard-response,2
true,5,1,1,1,true,z,false,true,0.0-2.0-0.18-0.168-3.168,0,0,1,90,false,stim,false,1,543,3,1,2,63806,WMM2,471562,false,false,592,image-keyboard-response,3
true,5,2,1,0,false,q,false,false,0.0-2.0-0.18-0.169-3.169,0,0,1,68,false,stim,true,2,831,3,0,0,63806,WMM2,473930,false,false,595,image-keyboard-response,4
true,5,1,1,1,true,z,false,true,0.0-2.0-0.18-0.170-3.170,0,0,1,90,false,stim,false,1,462,3,1,2,63806,WMM2,475922,false,false,598,image-keyboard-response,5
true,5,0,1,1,false,z,false,false,0.0-2.0-0.19-0.171-3.171,0,0,1,81,false,stim,true,0,539,3,0,1,63806,WMM2,478010,false,false,601,image-keyboard-response,6
true,5,1,1,1,true,z,false,true,0.0-2.0-0.19-0.172-3.172,0,0,1,90,false,stim,false,1,670,3,1,2,63806,WMM2,480210,false,false,604,image-keyboard-response,7
true,5,1,1,0,false,q,true,false,0.0-2.0-0.19-0.173-3.173,0,0,1,90,false,stim,false,2,1447,3,0,0,63806,WMM2,483195,false,false,607,image-keyboard-response,8
true,5,0,1,0,true,q,false,true,0.0-2.0-0.19-0.174-3.174,0,0,1,81,false,stim,false,2,689,3,0,0,63806,WMM2,485418,false,false,610,image-keyboard-response,9
true,5,1,1,1,true,z,false,true,0.0-2.0-0.19-0.175-3.175,0,0,1,90,false,stim,false,0,461,3,0,1,63806,WMM2,487410,false,false,613,image-keyboard-response,10
true,5,1,1,1,true,z,false,true,0.0-2.0-0.19-0.176-3.176,0,0,1,90,false,stim,false,0,701,3,0,1,63806,WMM2,489650,false,false,616,image-keyboard-response,11
true,5,1,1,1,true,z,false,true,0.0-2.0-0.19-0.177-3.177,0,0,1,90,false,stim,false,1,434,3,1,2,63806,WMM2,491594,false,false,619,image-keyboard-response,12
true,5,0,1,0,true,q,false,true,0.0-2.0-0.19-0.178-3.178,0,0,1,81,false,stim,false,2,475,3,0,0,63806,WMM2,493594,false,false,622,image-keyboard-response,13
true,5,1,1,1,true,z,false,true,0.0-2.0-0.19-0.179-3.179,0,0,1,90,false,stim,false,1,394,3,1,2,63806,WMM2,495514,false,false,625,image-keyboard-response,14
true,5,1,1,1,true,z,false,true,0.0-2.0-0.20-0.180-3.180,0,0,1,90,false,stim,false,0,396,3,0,1,63806,WMM2,497426,false,false,628,image-keyboard-response,15
true,5,1,1,1,true,z,false,true,0.0-2.0-0.20-0.181-3.181,0,0,1,90,false,stim,false,1,579,3,1,2,63806,WMM2,499529,false,false,631,image-keyboard-response,16
true,5,1,1,1,true,z,false,true,0.0-2.0-0.20-0.182-3.182,0,0,1,90,false,stim,false,1,380,3,1,2,63806,WMM2,501450,false,false,634,image-keyboard-response,17
true,5,0,1,0,true,q,false,false,0.0-2.0-0.20-0.183-3.183,0,0,1,81,false,stim,false,2,755,3,0,0,63806,WMM2,503746,false,true,637,image-keyboard-response,18
true,5,1,1,1,true,z,false,true,0.0-2.0-0.20-0.184-3.184,0,0,1,90,false,stim,false,0,427,3,0,1,63806,WMM2,505698,false,false,640,image-keyboard-response,19
true,5,0,1,0,true,q,false,true,0.0-2.0-0.20-0.185-3.185,0,0,1,81,false,stim,false,2,364,3,0,0,63806,WMM2,507594,false,false,643,image-keyboard-response,20
true,5,0,1,0,true,q,false,true,0.0-2.0-0.20-0.186-3.186,0,0,1,81,false,stim,false,2,902,3,1,0,63806,WMM2,510017,false,false,646,image-keyboard-response,21
true,5,1,1,1,true,z,false,true,0.0-2.0-0.20-0.187-3.187,0,0,1,90,false,stim,false,1,464,3,0,2,63806,WMM2,511993,false,false,649,image-keyboard-response,22
true,5,1,1,1,true,z,false,true,0.0-2.0-0.20-0.188-3.188,0,0,1,90,false,stim,false,0,386,3,1,1,63806,WMM2,513906,false,false,652,image-keyboard-response,23
true,5,1,1,1,true,z,false,true,0.0-2.0-0.21-0.189-3.189,0,0,1,90,false,stim,false,1,700,3,0,2,63806,WMM2,516130,false,false,655,image-keyboard-response,24
true,5,1,1,1,true,z,false,false,0.0-2.0-0.21-0.190-3.190,0,0,1,90,false,stim,false,0,667,3,1,1,63806,WMM2,518338,false,true,658,image-keyboard-response,25
true,5,0,1,0,true,q,false,true,0.0-2.0-0.21-0.191-3.191,0,0,1,81,false,stim,false,2,508,3,1,0,63806,WMM2,520378,false,false,661,image-keyboard-response,26
true,5,1,1,1,true,z,false,true,0.0-2.0-0.21-0.192-3.192,0,0,1,90,false,stim,false,0,475,3,1,1,63806,WMM2,522385,false,false,664,image-keyboard-response,27
true,5,1,1,1,true,z,false,true,0.0-2.0-0.21-0.193-3.193,0,0,1,90,false,stim,false,0,515,3,1,1,63806,WMM2,524433,false,false,667,image-keyboard-response,28
true,5,0,1,0,true,q,false,true,0.0-2.0-0.21-0.194-3.194,0,0,1,81,false,stim,false,2,794,3,1,0,63806,WMM2,526754,false,false,670,image-keyboard-response,29
true,5,1,1,1,true,z,false,true,0.0-2.0-0.21-0.195-3.195,0,0,1,90,false,stim,false,1,459,3,0,2,63806,WMM2,528738,false,false,673,image-keyboard-response,30
true,6,0,4,0,true,q,false,true,0.0-2.0-0.21-0.196-3.196,1,1,0,81,true,stim,false,0,643,3,1,0,63806,WMM2,530921,false,false,676,image-keyboard-response,1
true,6,1,4,1,true,z,false,true,0.0-2.0-0.21-0.197-3.197,1,1,0,90,false,stim,false,1,622,3,0,2,63806,WMM2,533082,false,false,679,image-keyboard-response,2
true,6,1,4,1,true,z,false,false,0.0-2.0-0.22-0.198-3.198,1,1,0,90,false,stim,false,1,510,3,1,1,63806,WMM2,535129,false,true,682,image-keyboard-response,3
true,6,1,4,1,true,z,false,false,0.0-2.0-0.22-0.199-3.199,1,1,0,90,false,stim,false,1,397,3,1,1,63806,WMM2,537057,false,true,685,image-keyboard-response,4
true,6,0,4,1,false,z,true,false,0.0-2.0-0.22-0.200-3.200,1,1,0,81,false,stim,false,1,544,3,1,1,63806,WMM2,539129,false,false,688,image-keyboard-response,5
true,6,0,4,0,true,q,false,false,0.0-2.0-0.22-0.201-3.201,1,1,0,81,false,stim,false,0,585,3,1,0,63806,WMM2,541250,false,true,691,image-keyboard-response,6
true,6,1,4,1,true,z,false,true,0.0-2.0-0.22-0.202-3.202,1,1,0,90,false,stim,false,1,597,3,0,2,63806,WMM2,543377,false,false,694,image-keyboard-response,7
true,6,1,4,1,true,z,false,true,0.0-2.0-0.22-0.203-3.203,1,1,0,90,false,stim,false,1,638,3,0,2,63806,WMM2,545538,false,false,697,image-keyboard-response,8
true,6,1,4,1,true,z,false,true,0.0-2.0-0.22-0.204-3.204,1,1,0,90,false,stim,false,1,524,3,0,2,63806,WMM2,547594,false,false,700,image-keyboard-response,9
true,6,0,4,0,true,q,false,false,0.0-2.0-0.22-0.205-3.205,1,1,0,81,false,stim,false,0,901,3,1,0,63806,WMM2,550050,false,true,703,image-keyboard-response,10
true,6,1,4,0,false,q,true,false,0.0-2.0-0.22-0.206-3.206,1,1,0,90,false,stim,false,0,526,3,1,0,63806,WMM2,552106,false,false,706,image-keyboard-response,11
true,6,1,4,1,true,z,false,true,0.0-2.0-0.23-0.207-3.207,1,1,0,90,false,stim,false,1,505,3,0,2,63806,WMM2,554145,false,false,709,image-keyboard-response,12
true,6,2,4,0,false,q,true,true,0.0-2.0-0.23-0.208-3.208,1,1,0,68,false,stim,false,0,860,3,1,0,63806,WMM2,556530,false,true,712,image-keyboard-response,13
true,6,2,4,0,false,q,true,true,0.0-2.0-0.23-0.209-3.209,1,1,0,68,false,stim,false,0,728,3,1,0,63806,WMM2,558778,false,true,715,image-keyboard-response,14
true,6,1,4,1,true,z,false,true,0.0-2.0-0.23-0.210-3.210,1,1,0,90,false,stim,false,1,748,3,1,1,63806,WMM2,561058,false,false,718,image-keyboard-response,15
true,6,1,4,1,true,z,false,true,0.0-2.0-0.23-0.211-3.211,1,1,0,90,false,stim,false,1,372,3,0,2,63806,WMM2,562962,false,false,721,image-keyboard-response,16
true,6,1,4,1,true,z,false,true,0.0-2.0-0.23-0.212-3.212,1,1,0,90,false,stim,false,1,336,3,1,1,63806,WMM2,564825,false,false,724,image-keyboard-response,17
true,6,2,4,0,false,q,true,false,0.0-2.0-0.23-0.213-3.213,1,1,0,68,false,stim,false,0,370,3,1,0,63806,WMM2,566729,false,false,727,image-keyboard-response,18
true,6,1,4,1,true,z,false,true,0.0-2.0-0.23-0.214-3.214,1,1,0,90,false,stim,false,1,512,3,0,2,63806,WMM2,568770,false,false,730,image-keyboard-response,19
true,6,1,4,1,true,z,false,true,0.0-2.0-0.23-0.215-3.215,1,1,0,90,false,stim,false,1,377,3,1,1,63806,WMM2,570666,false,false,733,image-keyboard-response,20
true,6,2,4,0,false,q,true,false,0.0-2.0-0.24-0.216-3.216,1,1,0,68,false,stim,false,0,464,3,1,0,63806,WMM2,572674,false,false,736,image-keyboard-response,21
true,6,1,4,1,true,z,false,true,0.0-2.0-0.24-0.217-3.217,1,1,0,90,false,stim,false,1,633,3,0,2,63806,WMM2,574842,false,false,739,image-keyboard-response,22
true,6,1,4,1,true,z,false,true,0.0-2.0-0.24-0.218-3.218,1,1,0,90,false,stim,false,1,569,3,1,1,63806,WMM2,576937,false,false,742,image-keyboard-response,23
true,6,2,4,0,false,q,true,false,0.0-2.0-0.24-0.219-3.219,1,1,0,68,false,stim,false,0,514,3,1,0,63806,WMM2,578994,false,false,745,image-keyboard-response,24
true,6,1,4,1,true,z,false,true,0.0-2.0-0.24-0.220-3.220,1,1,0,90,false,stim,false,1,584,3,1,1,63806,WMM2,581113,false,false,748,image-keyboard-response,25
true,6,1,4,1,true,z,false,true,0.0-2.0-0.24-0.221-3.221,1,1,0,90,false,stim,false,1,663,3,0,2,63806,WMM2,583313,false,false,751,image-keyboard-response,26
true,6,0,4,0,true,q,false,true,0.0-2.0-0.24-0.222-3.222,1,1,0,81,false,stim,false,0,355,3,1,0,63806,WMM2,585194,false,false,754,image-keyboard-response,27
true,6,1,4,1,true,z,false,true,0.0-2.0-0.24-0.223-3.223,1,1,0,90,false,stim,false,1,526,3,0,2,63806,WMM2,587265,false,false,757,image-keyboard-response,28
true,6,1,4,1,true,z,false,true,0.0-2.0-0.24-0.224-3.224,1,1,0,90,false,stim,false,1,449,3,1,1,63806,WMM2,589250,false,false,760,image-keyboard-response,29
true,6,1,4,1,true,z,false,true,0.0-2.0-0.25-0.225-3.225,1,1,0,90,false,stim,false,1,429,3,0,2,63806,WMM2,591210,false,false,763,image-keyboard-response,30
true,6,1,4,1,true,z,false,true,0.0-2.0-0.25-0.226-3.226,1,1,0,90,false,stim,false,1,560,3,1,1,63806,WMM2,593300,false,false,766,image-keyboard-response,31
true,6,1,4,1,true,z,false,true,0.0-2.0-0.25-0.227-3.227,1,1,0,90,false,stim,false,1,501,3,0,2,63806,WMM2,595329,false,false,769,image-keyboard-response,32
true,6,0,4,0,true,q,false,true,0.0-2.0-0.25-0.228-3.228,1,1,0,81,false,stim,false,0,391,3,1,0,63806,WMM2,597250,false,false,772,image-keyboard-response,33
true,6,1,4,1,true,z,false,true,0.0-2.0-0.25-0.229-3.229,1,1,0,90,false,stim,false,1,520,3,0,2,63806,WMM2,599289,false,false,775,image-keyboard-response,34
true,6,0,4,0,true,q,false,true,0.0-2.0-0.25-0.230-3.230,1,1,0,81,false,stim,false,0,542,3,1,0,63806,WMM2,601354,false,false,778,image-keyboard-response,35
true,6,1,4,1,true,z,false,false,0.0-2.0-0.25-0.231-3.231,1,1,0,90,false,stim,false,1,418,3,1,1,63806,WMM2,603298,false,true,781,image-keyboard-response,36
true,6,0,4,0,true,q,false,true,0.0-2.0-0.25-0.232-3.232,1,1,0,81,false,stim,false,0,658,3,1,0,63806,WMM2,605498,false,false,784,image-keyboard-response,37
true,6,2,4,1,false,z,true,false,0.0-2.0-0.25-0.233-3.233,1,1,0,68,false,stim,false,1,565,3,1,1,63806,WMM2,607593,false,false,787,image-keyboard-response,38
true,6,0,4,0,true,q,false,true,0.0-2.0-0.26-0.234-3.234,1,1,0,81,false,stim,false,0,616,3,1,0,63806,WMM2,609746,false,false,790,image-keyboard-response,39
true,6,0,4,0,true,q,false,true,0.0-2.0-0.26-0.235-3.235,1,1,0,81,false,stim,false,0,660,3,1,0,63806,WMM2,611929,false,false,793,image-keyboard-response,40
true,6,1,4,1,true,z,false,true,0.0-2.0-0.26-0.236-3.236,1,1,0,90,false,stim,false,1,372,3,1,1,63806,WMM2,613833,false,false,796,image-keyboard-response,41
true,6,1,4,1,true,z,false,true,0.0-2.0-0.26-0.237-3.237,1,1,0,90,false,stim,false,1,390,3,0,2,63806,WMM2,615749,false,false,799,image-keyboard-response,42
true,6,0,4,0,true,q,false,false,0.0-2.0-0.26-0.238-3.238,1,1,0,81,false,stim,false,0,521,3,1,0,63806,WMM2,617802,false,true,802,image-keyboard-response,43
true,7,1,2,2,false,d,false,true,0.0-2.0-0.26-0.239-3.239,1,1,0,90,true,stim,true,1,721,3,0,2,63806,WMM2,620050,false,true,805,image-keyboard-response,1
true,7,1,2,1,true,z,false,true,0.0-2.0-0.26-0.240-3.240,1,1,0,90,false,stim,false,1,358,3,1,1,63806,WMM2,621937,false,false,808,image-keyboard-response,2
true,7,1,2,2,false,d,false,false,0.0-2.0-0.26-0.241-3.241,1,1,0,90,false,stim,true,1,428,3,0,2,63806,WMM2,623897,false,false,811,image-keyboard-response,3
true,7,1,2,1,true,z,false,true,0.0-2.0-0.26-0.242-3.242,1,1,0,90,false,stim,false,1,502,3,1,1,63806,WMM2,625922,false,false,814,image-keyboard-response,4
true,7,0,2,0,true,q,false,true,0.0-2.0-0.27-0.243-3.243,1,1,0,81,false,stim,false,0,553,3,1,0,63806,WMM2,627994,false,false,817,image-keyboard-response,5
true,7,0,2,2,false,d,true,false,0.0-2.0-0.27-0.244-3.244,1,1,0,81,false,stim,false,1,562,3,0,2,63806,WMM2,630081,false,false,820,image-keyboard-response,6
true,7,0,2,0,true,q,false,true,0.0-2.0-0.27-0.245-3.245,1,1,0,81,false,stim,false,0,528,3,1,0,63806,WMM2,632138,false,false,823,image-keyboard-response,7
true,7,1,2,2,false,d,false,false,0.0-2.0-0.27-0.246-3.246,1,1,0,90,false,stim,true,1,386,3,0,2,63806,WMM2,634065,false,false,826,image-keyboard-response,8
true,7,1,2,1,true,z,false,true,0.0-2.0-0.27-0.247-3.247,1,1,0,90,false,stim,false,1,793,3,1,1,63806,WMM2,636393,false,false,829,image-keyboard-response,9
true,7,0,2,0,true,q,false,true,0.0-2.0-0.27-0.248-3.248,1,1,0,81,false,stim,false,0,591,3,1,0,63806,WMM2,638521,false,false,832,image-keyboard-response,10
true,7,1,2,2,false,d,false,false,0.0-2.0-0.27-0.249-3.249,1,1,0,90,false,stim,true,1,363,3,0,2,63806,WMM2,640418,false,false,835,image-keyboard-response,11
true,7,1,2,1,true,z,false,true,0.0-2.0-0.27-0.250-3.250,1,1,0,90,false,stim,false,1,595,3,1,1,63806,WMM2,642544,false,false,838,image-keyboard-response,12
true,7,1,2,1,true,z,false,true,0.0-2.0-0.27-0.251-3.251,1,1,0,90,false,stim,false,1,650,3,1,1,63806,WMM2,644720,false,false,841,image-keyboard-response,13
true,7,1,2,1,true,z,false,true,0.0-2.0-0.28-0.252-3.252,1,1,0,90,false,stim,false,1,528,3,1,1,63806,WMM2,646776,false,false,844,image-keyboard-response,14
true,7,0,2,0,true,q,false,true,0.0-2.0-0.28-0.253-3.253,1,1,0,81,false,stim,false,0,540,3,1,0,63806,WMM2,648850,false,false,847,image-keyboard-response,15
true,7,1,2,1,true,z,false,true,0.0-2.0-0.28-0.254-3.254,1,1,0,90,false,stim,false,1,990,3,1,1,63806,WMM2,651369,false,false,850,image-keyboard-response,16
true,7,0,2,0,true,q,false,true,0.0-2.0-0.28-0.255-3.255,1,1,0,81,false,stim,false,0,565,3,1,0,63806,WMM2,653473,false,false,853,image-keyboard-response,17
true,7,2,2,2,true,d,false,true,0.0-2.0-0.28-0.256-3.256,1,1,0,68,false,stim,false,1,479,3,0,2,63806,WMM2,655489,false,false,856,image-keyboard-response,18
true,7,1,2,1,true,z,false,true,0.0-2.0-0.28-0.257-3.257,1,1,0,90,false,stim,false,1,435,3,1,1,63806,WMM2,657465,false,false,859,image-keyboard-response,19
true,7,2,2,2,true,d,false,true,0.0-2.0-0.28-0.258-3.258,1,1,0,68,false,stim,false,1,748,3,0,2,63806,WMM2,659738,false,false,862,image-keyboard-response,20
true,7,2,2,2,true,d,false,true,0.0-2.0-0.28-0.259-3.259,1,1,0,68,false,stim,false,1,482,3,0,2,63806,WMM2,661761,false,false,865,image-keyboard-response,21
true,7,0,2,0,true,q,false,true,0.0-2.0-0.28-0.260-3.260,1,1,0,81,false,stim,false,0,663,3,1,0,63806,WMM2,663952,false,false,868,image-keyboard-response,22
true,7,2,2,2,true,d,false,true,0.0-2.0-0.29-0.261-3.261,1,1,0,68,false,stim,false,1,552,3,0,2,63806,WMM2,666041,false,false,871,image-keyboard-response,23
true,7,2,2,2,true,d,false,true,0.0-2.0-0.29-0.262-3.262,1,1,0,68,false,stim,false,1,454,3,0,2,63806,WMM2,668009,false,false,874,image-keyboard-response,24
true,7,0,2,0,true,q,false,true,0.0-2.0-0.29-0.263-3.263,1,1,0,81,false,stim,false,0,1222,3,1,0,63806,WMM2,670770,false,false,877,image-keyboard-response,25
true,7,2,2,2,true,d,false,true,0.0-2.0-0.29-0.264-3.264,1,1,0,68,false,stim,false,1,588,3,0,2,63806,WMM2,672898,false,false,880,image-keyboard-response,26
true,7,0,2,0,true,q,false,false,0.0-2.0-0.29-0.265-3.265,1,1,0,81,false,stim,false,0,548,3,1,0,63806,WMM2,674977,false,true,883,image-keyboard-response,27
true,7,1,2,1,true,z,false,true,0.0-2.0-0.29-0.266-3.266,1,1,0,90,false,stim,false,1,452,3,1,1,63806,WMM2,676961,false,false,886,image-keyboard-response,28
true,7,0,2,0,true,q,false,true,0.0-2.0-0.29-0.267-3.267,1,1,0,81,false,stim,false,0,410,3,1,0,63806,WMM2,678899,false,false,889,image-keyboard-response,29
true,7,1,2,1,true,z,false,true,0.0-2.0-0.29-0.268-3.268,1,1,0,90,false,stim,false,1,643,3,1,1,63806,WMM2,681072,false,false,892,image-keyboard-response,30
true,8,1,4,1,true,z,false,true,0.0-2.0-0.29-0.269-3.269,1,1,0,90,true,stim,false,1,528,3,1,1,63806,WMM2,683138,false,false,895,image-keyboard-response,1
true,8,0,4,0,true,q,false,true,0.0-2.0-0.30-0.270-3.270,1,1,0,81,false,stim,false,0,564,3,1,0,63806,WMM2,685233,false,false,898,image-keyboard-response,2
true,8,1,4,1,true,z,false,true,0.0-2.0-0.30-0.271-3.271,1,1,0,90,false,stim,false,1,970,3,1,1,63806,WMM2,687737,false,false,901,image-keyboard-response,3
true,8,1,4,1,true,z,false,false,0.0-2.0-0.30-0.272-3.272,1,1,0,90,false,stim,false,1,413,3,1,1,63806,WMM2,689673,false,true,904,image-keyboard-response,4
true,8,1,4,1,true,z,false,true,0.0-2.0-0.30-0.273-3.273,1,1,0,90,false,stim,false,1,450,3,1,1,63806,WMM2,691650,false,false,907,image-keyboard-response,5
true,8,2,4,2,true,d,false,true,0.0-2.0-0.30-0.274-3.274,1,1,0,68,false,stim,false,2,525,3,0,2,63806,WMM2,693706,false,false,910,image-keyboard-response,6
true,8,2,4,2,true,d,false,true,0.0-2.0-0.30-0.275-3.275,1,1,0,68,false,stim,false,2,545,3,0,2,63806,WMM2,695785,false,false,913,image-keyboard-response,7
true,8,0,4,0,true,q,false,true,0.0-2.0-0.30-0.276-3.276,1,1,0,81,false,stim,false,0,1079,3,1,0,63806,WMM2,698377,false,false,916,image-keyboard-response,8
true,8,2,4,2,true,d,false,true,0.0-2.0-0.30-0.277-3.277,1,1,0,68,false,stim,false,2,559,3,0,2,63806,WMM2,700456,false,false,919,image-keyboard-response,9
true,8,0,4,0,true,q,false,true,0.0-2.0-0.30-0.278-3.278,1,1,0,81,false,stim,false,0,615,3,1,0,63806,WMM2,702594,false,false,922,image-keyboard-response,10
true,8,2,4,2,true,d,false,true,0.0-2.0-0.31-0.279-3.279,1,1,0,68,false,stim,false,2,498,3,0,2,63806,WMM2,704617,false,false,925,image-keyboard-response,11
true,8,2,4,2,true,d,false,true,0.0-2.0-0.31-0.280-3.280,1,1,0,68,false,stim,false,2,461,3,0,2,63806,WMM2,706610,false,false,928,image-keyboard-response,12
true,8,1,4,1,true,z,false,false,0.0-2.0-0.31-0.281-3.281,1,1,0,90,false,stim,false,1,422,3,1,1,63806,WMM2,708561,false,true,931,image-keyboard-response,13
true,8,1,4,1,true,z,false,true,0.0-2.0-0.31-0.282-3.282,1,1,0,90,false,stim,false,1,409,3,1,1,63806,WMM2,710510,false,false,934,image-keyboard-response,14
true,8,1,4,1,true,z,false,true,0.0-2.0-0.31-0.283-3.283,1,1,0,90,false,stim,false,1,481,3,1,1,63806,WMM2,712521,false,false,937,image-keyboard-response,15
true,8,0,4,0,true,q,false,true,0.0-2.0-0.31-0.284-3.284,1,1,0,81,false,stim,false,0,516,3,1,0,63806,WMM2,714577,false,false,940,image-keyboard-response,16
true,8,0,4,0,true,q,false,false,0.0-2.0-0.31-0.285-3.285,1,1,0,81,false,stim,false,0,493,3,1,0,63806,WMM2,716594,false,true,943,image-keyboard-response,17
true,8,0,4,0,true,q,false,true,0.0-2.0-0.31-0.286-3.286,1,1,0,81,false,stim,false,0,491,3,1,0,63806,WMM2,718609,false,false,946,image-keyboard-response,18
true,8,2,4,2,true,d,false,true,0.0-2.0-0.31-0.287-3.287,1,1,0,68,false,stim,false,2,502,3,0,2,63806,WMM2,720641,false,false,949,image-keyboard-response,19
true,8,0,4,0,true,q,false,true,0.0-2.0-0.32-0.288-3.288,1,1,0,81,false,stim,false,0,610,3,1,0,63806,WMM2,722779,false,false,952,image-keyboard-response,20
true,8,0,4,0,true,q,false,true,0.0-2.0-0.32-0.289-3.289,1,1,0,81,false,stim,false,0,525,3,0,0,63806,WMM2,724833,false,false,955,image-keyboard-response,21
true,8,0,4,0,true,q,false,true,0.0-2.0-0.32-0.290-3.290,1,1,0,81,false,stim,false,0,568,3,0,0,63806,WMM2,726938,false,false,958,image-keyboard-response,22
true,8,1,4,1,true,z,false,true,0.0-2.0-0.32-0.291-3.291,1,1,0,90,false,stim,false,1,893,3,0,1,63806,WMM2,729360,false,false,961,image-keyboard-response,23
true,8,2,4,2,true,d,false,true,0.0-2.0-0.32-0.292-3.292,1,1,0,68,false,stim,false,2,489,3,1,2,63806,WMM2,731377,false,false,964,image-keyboard-response,24
true,8,1,4,1,true,z,false,true,0.0-2.0-0.32-0.293-3.293,1,1,0,90,false,stim,false,1,603,3,0,1,63806,WMM2,733513,false,false,967,image-keyboard-response,25
true,8,1,4,1,true,z,false,true,0.0-2.0-0.32-0.294-3.294,1,1,0,90,false,stim,false,1,459,3,0,1,63806,WMM2,735509,false,false,970,image-keyboard-response,26
true,8,2,4,2,true,d,false,true,0.0-2.0-0.32-0.295-3.295,1,1,0,68,false,stim,false,2,499,3,1,2,63806,WMM2,737528,false,false,973,image-keyboard-response,27
true,8,2,4,2,true,d,false,true,0.0-2.0-0.32-0.296-3.296,1,1,0,68,false,stim,false,2,512,3,1,2,63806,WMM2,739562,false,false,976,image-keyboard-response,28
true,8,2,4,2,true,d,false,true,0.0-2.0-0.33-0.297-3.297,1,1,0,68,false,stim,false,2,461,3,1,2,63806,WMM2,741537,false,false,979,image-keyboard-response,29
true,8,0,4,0,true,q,false,true,0.0-2.0-0.33-0.298-3.298,1,1,0,81,false,stim,false,0,1024,3,0,0,63806,WMM2,744082,false,false,982,image-keyboard-response,30
true,9,2,1,2,true,d,false,true,0.0-2.0-0.33-0.299-3.299,0,0,1,68,true,stim,false,2,502,3,1,2,63806,WMM2,746122,false,false,985,image-keyboard-response,1
true,9,1,1,0,false,q,false,false,0.0-2.0-0.33-0.300-3.300,0,0,1,90,false,stim,true,1,1166,3,0,1,63806,WMM2,748816,false,false,988,image-keyboard-response,2
true,9,0,1,1,false,z,false,true,0.0-2.0-0.33-0.301-3.301,0,0,1,81,false,stim,true,0,496,3,0,0,63806,WMM2,750825,false,true,991,image-keyboard-response,3
true,9,1,1,0,false,q,false,false,0.0-2.0-0.33-0.302-3.302,0,0,1,90,false,stim,true,1,412,3,0,1,63806,WMM2,752761,false,false,994,image-keyboard-response,4
true,9,2,1,2,true,d,false,false,0.0-2.0-0.33-0.303-3.303,0,0,1,68,false,stim,false,2,472,3,1,2,63806,WMM2,754761,false,true,997,image-keyboard-response,5
true,9,2,1,0,false,q,true,false,0.0-2.0-0.33-0.304-3.304,0,0,1,68,false,stim,false,1,512,3,0,1,63806,WMM2,756801,false,false,1000,image-keyboard-response,6
true,9,0,1,1,false,z,false,false,0.0-2.0-0.33-0.305-3.305,0,0,1,81,false,stim,true,0,547,3,0,0,63806,WMM2,758898,false,false,1003,image-keyboard-response,7
true,9,0,1,1,false,z,false,true,0.0-2.0-0.34-0.306-3.306,0,0,1,81,false,stim,true,0,396,3,0,0,63806,WMM2,760826,false,true,1006,image-keyboard-response,8
true,9,0,1,2,false,d,true,false,0.0-2.0-0.34-0.307-3.307,0,0,1,81,false,stim,false,2,540,3,1,2,63806,WMM2,762889,false,false,1009,image-keyboard-response,9
true,9,0,1,0,true,q,false,true,0.0-2.0-0.34-0.308-3.308,0,0,1,81,false,stim,false,1,596,3,0,1,63806,WMM2,765026,false,false,1012,image-keyboard-response,10
true,9,0,1,1,false,z,false,true,0.0-2.0-0.34-0.309-3.309,0,0,1,81,false,stim,true,0,508,3,0,0,63806,WMM2,767058,false,true,1015,image-keyboard-response,11
true,9,0,1,0,true,q,false,true,0.0-2.0-0.34-0.310-3.310,0,0,1,81,false,stim,false,1,539,3,0,1,63806,WMM2,769129,false,false,1018,image-keyboard-response,12
true,9,1,1,2,false,d,true,false,0.0-2.0-0.34-0.311-3.311,0,0,1,90,false,stim,false,2,371,3,1,2,63806,WMM2,771042,false,false,1021,image-keyboard-response,13
true,9,0,1,1,false,z,false,true,0.0-2.0-0.34-0.312-3.312,0,0,1,81,false,stim,true,0,544,3,0,0,63806,WMM2,773104,false,true,1024,image-keyboard-response,14
true,9,2,1,2,true,d,false,true,0.0-2.0-0.34-0.313-3.313,0,0,1,68,false,stim,false,2,507,3,1,2,63806,WMM2,775137,false,false,1027,image-keyboard-response,15
true,9,0,1,0,true,q,false,true,0.0-2.0-0.34-0.314-3.314,0,0,1,81,false,stim,false,1,460,3,0,1,63806,WMM2,777129,false,false,1030,image-keyboard-response,16
true,9,0,1,0,true,q,false,true,0.0-2.0-0.35-0.315-3.315,0,0,1,81,false,stim,false,1,508,3,0,1,63806,WMM2,779177,false,false,1033,image-keyboard-response,17
true,9,2,1,2,true,d,false,true,0.0-2.0-0.35-0.316-3.316,0,0,1,68,false,stim,false,2,475,3,1,2,63806,WMM2,781185,false,false,1036,image-keyboard-response,18
true,9,0,1,0,true,q,false,true,0.0-2.0-0.35-0.317-3.317,0,0,1,81,false,stim,false,1,597,3,0,1,63806,WMM2,783305,false,false,1039,image-keyboard-response,19
true,9,2,1,2,true,d,false,true,0.0-2.0-0.35-0.318-3.318,0,0,1,68,false,stim,false,2,755,3,1,2,63806,WMM2,785585,false,false,1042,image-keyboard-response,20
true,9,0,1,1,false,z,false,true,0.0-2.0-0.35-0.319-3.319,0,0,1,81,false,stim,true,0,498,3,0,0,63806,WMM2,787617,false,true,1045,image-keyboard-response,21
true,9,2,1,2,true,d,false,true,0.0-2.0-0.35-0.320-3.320,0,0,1,68,false,stim,false,2,475,3,1,2,63806,WMM2,789634,false,false,1048,image-keyboard-response,22
true,9,0,1,1,false,z,false,false,0.0-2.0-0.35-0.321-3.321,0,0,1,81,false,stim,true,0,526,3,0,0,63806,WMM2,791706,false,false,1051,image-keyboard-response,23
true,9,0,1,0,true,q,false,true,0.0-2.0-0.35-0.322-3.322,0,0,1,81,false,stim,false,1,353,3,0,1,63806,WMM2,793593,false,false,1054,image-keyboard-response,24
true,9,0,1,1,false,z,false,false,0.0-2.0-0.35-0.323-3.323,0,0,1,81,false,stim,true,0,392,3,0,0,63806,WMM2,795521,false,false,1057,image-keyboard-response,25
true,9,2,1,2,true,d,false,true,0.0-2.0-0.36-0.324-3.324,0,0,1,68,false,stim,false,2,562,3,1,2,63806,WMM2,797601,false,false,1060,image-keyboard-response,26
true,9,2,1,1,false,z,true,false,0.0-2.0-0.36-0.325-3.325,0,0,1,68,false,stim,false,0,400,3,0,0,63806,WMM2,799529,false,false,1063,image-keyboard-response,27
true,9,1,1,1,true,z,false,true,0.0-2.0-0.36-0.326-3.326,0,0,1,90,false,stim,false,0,557,3,0,0,63806,WMM2,801617,false,false,1066,image-keyboard-response,28
true,9,0,1,0,true,q,false,true,0.0-2.0-0.36-0.327-3.327,0,0,1,81,false,stim,false,1,388,3,0,1,63806,WMM2,803537,false,false,1069,image-keyboard-response,29
true,9,2,1,2,true,d,false,true,0.0-2.0-0.36-0.328-3.328,0,0,1,68,false,stim,false,2,450,3,1,2,63806,WMM2,805529,false,false,1072,image-keyboard-response,30
true,9,1,1,1,true,z,false,true,0.0-2.0-0.36-0.329-3.329,0,0,1,90,false,stim,false,0,358,3,0,0,63806,WMM2,807417,false,false,1075,image-keyboard-response,31
true,9,2,1,2,true,d,false,true,0.0-2.0-0.36-0.330-3.330,0,0,1,68,false,stim,false,2,481,3,1,2,63806,WMM2,809441,false,false,1078,image-keyboard-response,32
true,9,0,1,0,true,q,false,true,0.0-2.0-0.36-0.331-3.331,0,0,1,81,false,stim,false,1,550,3,0,1,63806,WMM2,811529,false,false,1081,image-keyboard-response,33
true,9,0,1,0,true,q,false,true,0.0-2.0-0.36-0.332-3.332,0,0,1,81,false,stim,false,1,539,3,0,1,63806,WMM2,813609,false,false,1084,image-keyboard-response,34
true,9,0,1,0,true,q,false,true,0.0-2.0-0.37-0.333-3.333,0,0,1,81,false,stim,false,1,531,3,0,1,63806,WMM2,815681,false,false,1087,image-keyboard-response,35
true,9,0,1,0,true,q,false,true,0.0-2.0-0.37-0.334-3.334,0,0,1,81,false,stim,false,1,417,3,0,1,63806,WMM2,817617,false,false,1090,image-keyboard-response,36
true,9,0,1,0,true,q,false,true,0.0-2.0-0.37-0.335-3.335,0,0,1,81,false,stim,false,1,588,3,0,1,63806,WMM2,819737,false,false,1093,image-keyboard-response,37
true,9,1,1,1,true,z,false,true,0.0-2.0-0.37-0.336-3.336,0,0,1,90,false,stim,false,0,446,3,0,0,63806,WMM2,821705,false,false,1096,image-keyboard-response,38
true,9,1,1,1,true,z,false,true,0.0-2.0-0.37-0.337-3.337,0,0,1,90,false,stim,false,0,333,3,0,0,63806,WMM2,823561,false,false,1099,image-keyboard-response,39
true,9,2,1,2,true,d,false,true,0.0-2.0-0.37-0.338-3.338,0,0,1,68,false,stim,false,2,468,3,1,2,63806,WMM2,825577,false,false,1102,image-keyboard-response,40
true,9,2,1,2,true,d,false,true,0.0-2.0-0.37-0.339-3.339,0,0,1,68,false,stim,false,2,373,3,1,2,63806,WMM2,827481,false,false,1105,image-keyboard-response,41
true,10,1,1,2,false,d,false,true,0.0-2.0-0.37-0.340-3.340,0,0,1,90,true,stim,true,1,450,3,0,0,63806,WMM2,829448,false,true,1108,image-keyboard-response,1
true,10,2,1,2,true,d,false,false,0.0-2.0-0.37-0.341-3.341,0,0,1,68,false,stim,false,2,447,3,1,2,63806,WMM2,831417,false,true,1111,image-keyboard-response,2
true,10,2,1,2,true,d,false,true,0.0-2.0-0.38-0.342-3.342,0,0,1,68,false,stim,false,2,334,3,1,2,63806,WMM2,833264,false,false,1114,image-keyboard-response,3
true,10,0,1,1,false,z,false,false,0.0-2.0-0.38-0.343-3.343,0,0,1,81,false,stim,true,0,603,3,0,1,63806,WMM2,835392,false,false,1117,image-keyboard-response,4
true,10,2,1,2,true,d,false,true,0.0-2.0-0.38-0.344-3.344,0,0,1,68,false,stim,false,2,497,3,1,2,63806,WMM2,837417,false,false,1120,image-keyboard-response,5
true,10,1,1,2,false,d,false,false,0.0-2.0-0.38-0.345-3.345,0,0,1,90,false,stim,true,1,658,3,0,0,63806,WMM2,839609,false,false,1123,image-keyboard-response,6
true,10,1,1,2,false,d,false,false,0.0-2.0-0.38-0.346-3.346,0,0,1,90,false,stim,true,1,461,3,0,0,63806,WMM2,841609,false,false,1126,image-keyboard-response,7
true,10,0,1,1,false,z,false,false,0.0-2.0-0.38-0.347-3.347,0,0,1,81,false,stim,true,0,566,3,0,1,63806,WMM2,843705,false,false,1129,image-keyboard-response,8
true,10,1,1,1,true,z,false,true,0.0-2.0-0.38-0.348-3.348,0,0,1,90,false,stim,false,0,709,3,0,1,63806,WMM2,845937,false,false,1132,image-keyboard-response,9
true,10,2,1,2,true,d,false,true,0.0-2.0-0.38-0.349-3.349,0,0,1,68,false,stim,false,2,595,3,1,2,63806,WMM2,848065,false,false,1135,image-keyboard-response,10
true,10,2,1,2,true,d,false,true,0.0-2.0-0.38-0.350-3.350,0,0,1,68,false,stim,false,1,412,3,0,0,63806,WMM2,850000,false,false,1138,image-keyboard-response,11
true,10,1,1,1,true,z,false,false,0.0-2.0-0.39-0.351-3.351,0,0,1,90,false,stim,false,0,568,3,0,1,63806,WMM2,852097,false,true,1141,image-keyboard-response,12
true,10,1,1,1,true,z,false,true,0.0-2.0-0.39-0.352-3.352,0,0,1,90,false,stim,false,0,506,3,0,1,63806,WMM2,854145,false,false,1144,image-keyboard-response,13
true,10,2,1,2,true,d,false,true,0.0-2.0-0.39-0.353-3.353,0,0,1,68,false,stim,false,1,701,3,0,0,63806,WMM2,856369,false,false,1147,image-keyboard-response,14
true,10,1,1,2,false,d,false,true,0.0-2.0-0.39-0.354-3.354,0,0,1,90,false,stim,true,1,524,3,0,0,63806,WMM2,858433,false,true,1150,image-keyboard-response,15
true,10,2,1,2,true,d,false,true,0.0-2.0-0.39-0.355-3.355,0,0,1,68,false,stim,false,2,440,3,1,2,63806,WMM2,860409,false,false,1153,image-keyboard-response,16
true,10,1,1,1,true,z,false,true,0.0-2.0-0.39-0.356-3.356,0,0,1,90,false,stim,false,0,645,3,0,1,63806,WMM2,862593,false,false,1156,image-keyboard-response,17
true,10,2,1,2,true,d,false,true,0.0-2.0-0.39-0.357-3.357,0,0,1,68,false,stim,false,2,512,3,1,2,63806,WMM2,864641,false,false,1159,image-keyboard-response,18
true,10,2,1,2,true,d,false,true,0.0-2.0-0.39-0.358-3.358,0,0,1,68,false,stim,false,2,552,3,1,2,63806,WMM2,866721,false,false,1162,image-keyboard-response,19
true,10,1,1,2,false,d,false,true,0.0-2.0-0.39-0.359-3.359,0,0,1,90,false,stim,true,1,454,3,0,0,63806,WMM2,868705,false,true,1165,image-keyboard-response,20
true,10,1,1,1,true,z,false,true,0.0-2.0-0.40-0.360-3.360,0,0,1,90,false,stim,false,0,381,3,0,1,63806,WMM2,870618,false,false,1168,image-keyboard-response,21
true,10,1,1,1,true,z,false,true,0.0-2.0-0.40-0.361-3.361,0,0,1,90,false,stim,false,0,386,3,0,1,63806,WMM2,872544,false,false,1171,image-keyboard-response,22
true,10,1,1,1,true,z,false,true,0.0-2.0-0.40-0.362-3.362,0,0,1,90,false,stim,false,0,416,3,0,1,63806,WMM2,874489,false,false,1174,image-keyboard-response,23
true,10,1,1,2,false,d,false,false,0.0-2.0-0.40-0.363-3.363,0,0,1,90,false,stim,true,1,366,3,0,0,63806,WMM2,876385,false,false,1177,image-keyboard-response,24
true,10,1,1,2,false,d,false,false,0.0-2.0-0.40-0.364-3.364,0,0,1,90,false,stim,true,1,354,3,0,0,63806,WMM2,878273,false,false,1180,image-keyboard-response,25
true,10,2,1,2,true,d,false,true,0.0-2.0-0.40-0.365-3.365,0,0,1,68,false,stim,false,2,439,3,1,2,63806,WMM2,880257,false,false,1183,image-keyboard-response,26
true,10,2,1,2,true,d,false,true,0.0-2.0-0.40-0.366-3.366,0,0,1,68,false,stim,false,2,691,3,1,2,63806,WMM2,882481,false,false,1186,image-keyboard-response,27
true,10,2,1,2,true,d,false,true,0.0-2.0-0.40-0.367-3.367,0,0,1,68,false,stim,false,2,564,3,1,2,63806,WMM2,884592,false,false,1189,image-keyboard-response,28
true,10,1,1,2,false,d,false,false,0.0-2.0-0.40-0.368-3.368,0,0,1,90,false,stim,true,1,475,3,0,0,63806,WMM2,886585,false,false,1192,image-keyboard-response,29
true,10,2,1,2,true,d,false,true,0.0-2.0-0.41-0.369-3.369,0,0,1,68,false,stim,false,2,552,3,1,2,63806,WMM2,888681,false,false,1195,image-keyboard-response,30
true,10,2,1,2,true,d,false,true,0.0-2.0-0.41-0.370-3.370,0,0,1,68,false,stim,false,2,526,3,1,2,63806,WMM2,890745,false,false,1198,image-keyboard-response,31
true,10,1,1,1,true,z,false,true,0.0-2.0-0.41-0.371-3.371,0,0,1,90,false,stim,false,0,536,3,0,1,63806,WMM2,892857,false,false,1201,image-keyboard-response,32
true,10,1,1,1,true,z,false,true,0.0-2.0-0.41-0.372-3.372,0,0,1,90,false,stim,false,0,664,3,0,1,63806,WMM2,895073,false,false,1204,image-keyboard-response,33
true,10,2,1,2,true,d,false,false,0.0-2.0-0.41-0.373-3.373,0,0,1,68,false,stim,false,2,504,3,1,2,63806,WMM2,897113,false,true,1207,image-keyboard-response,34
true,10,0,1,2,false,d,true,false,0.0-2.0-0.41-0.374-3.374,0,0,1,81,false,stim,false,1,355,3,0,0,63806,WMM2,898993,false,false,1210,image-keyboard-response,35
true,10,1,1,1,true,z,false,true,0.0-2.0-0.41-0.375-3.375,0,0,1,90,false,stim,false,0,549,3,0,1,63806,WMM2,901089,false,false,1213,image-keyboard-response,36
true,10,2,1,2,true,d,false,true,0.0-2.0-0.41-0.376-3.376,0,0,1,68,false,stim,false,1,542,3,0,0,63806,WMM2,903168,false,false,1216,image-keyboard-response,37
true,10,2,1,2,true,d,false,true,0.0-2.0-0.41-0.377-3.377,0,0,1,68,false,stim,false,1,507,3,0,0,63806,WMM2,905216,false,false,1219,image-keyboard-response,38
true,10,2,1,2,true,d,false,true,0.0-2.0-0.42-0.378-3.378,0,0,1,68,false,stim,false,1,492,3,1,0,63806,WMM2,907242,false,false,1222,image-keyboard-response,39
true,10,0,1,1,false,z,false,false,0.0-2.0-0.42-0.379-3.379,0,0,1,81,false,stim,true,0,583,3,1,1,63806,WMM2,909353,false,false,1225,image-keyboard-response,40
true,10,1,1,1,true,z,false,true,0.0-2.0-0.42-0.380-3.380,0,0,1,90,false,stim,false,0,496,3,1,1,63806,WMM2,911385,false,false,1228,image-keyboard-response,41
true,10,2,1,2,true,d,false,true,0.0-2.0-0.42-0.381-3.381,0,0,1,68,false,stim,false,1,659,3,1,0,63806,WMM2,913569,false,false,1231,image-keyboard-response,42
true,10,2,1,2,true,d,false,true,0.0-2.0-0.42-0.382-3.382,0,0,1,68,false,stim,false,2,381,3,0,2,63806,WMM2,915489,false,false,1234,image-keyboard-response,43
true,10,1,1,1,true,z,false,true,0.0-2.0-0.42-0.383-3.383,0,0,1,90,false,stim,false,0,468,3,1,1,63806,WMM2,917497,false,false,1237,image-keyboard-response,44
true,10,2,1,2,true,d,false,true,0.0-2.0-0.42-0.384-3.384,0,0,1,68,false,stim,false,2,482,3,0,2,63806,WMM2,919513,false,false,1240,image-keyboard-response,45
true,10,2,1,2,true,d,false,true,0.0-2.0-0.42-0.385-3.385,0,0,1,68,false,stim,false,2,575,3,0,2,63806,WMM2,921625,false,false,1243,image-keyboard-response,46
true,10,2,1,2,true,d,false,true,0.0-2.0-0.42-0.386-3.386,0,0,1,68,false,stim,false,1,866,3,1,0,63806,WMM2,924025,false,false,1246,image-keyboard-response,47
true,10,2,1,2,true,d,false,true,0.0-2.0-0.43-0.387-3.387,0,0,1,68,false,stim,false,1,378,3,1,0,63806,WMM2,925937,false,false,1249,image-keyboard-response,48
true,11,2,2,2,true,d,false,true,0.0-2.0-0.43-0.388-3.388,1,1,0,68,true,stim,false,2,437,3,1,0,63806,WMM2,927905,false,false,1252,image-keyboard-response,1
true,11,2,2,1,false,z,false,false,0.0-2.0-0.43-0.389-3.389,1,1,0,68,false,stim,true,2,555,3,0,2,63806,WMM2,929985,false,false,1255,image-keyboard-response,2
true,11,1,2,1,true,z,false,false,0.0-2.0-0.43-0.390-3.390,1,1,0,90,false,stim,false,1,572,3,1,1,63806,WMM2,932081,false,true,1258,image-keyboard-response,3
true,11,1,2,1,true,z,false,true,0.0-2.0-0.43-0.391-3.391,1,1,0,90,false,stim,false,1,464,3,1,1,63806,WMM2,934073,false,false,1261,image-keyboard-response,4
true,11,2,2,1,false,z,false,true,0.0-2.0-0.43-0.392-3.392,1,1,0,68,false,stim,true,2,382,3,0,2,63806,WMM2,936000,false,true,1264,image-keyboard-response,5
true,11,2,2,2,true,d,false,true,0.0-2.0-0.43-0.393-3.393,1,1,0,68,false,stim,false,2,373,3,1,0,63806,WMM2,937913,false,false,1267,image-keyboard-response,6
true,11,2,2,1,false,z,false,false,0.0-2.0-0.43-0.394-3.394,1,1,0,68,false,stim,true,2,425,3,0,2,63806,WMM2,939865,false,false,1270,image-keyboard-response,7
true,11,1,2,1,true,z,false,true,0.0-2.0-0.43-0.395-3.395,1,1,0,90,false,stim,false,1,490,3,1,1,63806,WMM2,941888,false,false,1273,image-keyboard-response,8
true,11,2,2,2,true,d,false,true,0.0-2.0-0.44-0.396-3.396,1,1,0,68,false,stim,false,2,598,3,1,0,63806,WMM2,944017,false,false,1276,image-keyboard-response,9
true,11,2,2,2,true,d,false,true,0.0-2.0-0.44-0.397-3.397,1,1,0,68,false,stim,false,2,483,3,1,0,63806,WMM2,946033,false,false,1279,image-keyboard-response,10
true,11,1,2,1,true,z,false,true,0.0-2.0-0.44-0.398-3.398,1,1,0,90,false,stim,false,1,575,3,1,1,63806,WMM2,948144,false,false,1282,image-keyboard-response,11
true,11,2,2,1,false,z,false,false,0.0-2.0-0.44-0.399-3.399,1,1,0,68,false,stim,true,2,515,3,0,2,63806,WMM2,950185,false,false,1285,image-keyboard-response,12
true,11,2,2,1,false,z,false,false,0.0-2.0-0.44-0.400-3.400,1,1,0,68,false,stim,true,2,332,3,0,2,63806,WMM2,952041,false,false,1288,image-keyboard-response,13
true,11,1,2,1,true,z,false,false,0.0-2.0-0.44-0.401-3.401,1,1,0,90,false,stim,false,2,387,3,0,2,63806,WMM2,953961,false,true,1291,image-keyboard-response,14
true,11,1,2,1,true,z,false,true,0.0-2.0-0.44-0.402-3.402,1,1,0,90,false,stim,false,1,808,3,1,1,63806,WMM2,956297,false,false,1294,image-keyboard-response,15
true,11,1,2,1,true,z,false,true,0.0-2.0-0.44-0.403-3.403,1,1,0,90,false,stim,false,1,531,3,1,1,63806,WMM2,958361,false,false,1297,image-keyboard-response,16
true,11,2,2,2,true,d,false,true,0.0-2.0-0.44-0.404-3.404,1,1,0,68,false,stim,false,2,353,3,1,0,63806,WMM2,960241,false,false,1300,image-keyboard-response,17
true,11,1,2,1,true,z,false,true,0.0-2.0-0.45-0.405-3.405,1,1,0,90,false,stim,false,1,645,3,1,1,63806,WMM2,962432,false,false,1303,image-keyboard-response,18
true,11,2,2,2,true,d,false,true,0.0-2.0-0.45-0.406-3.406,1,1,0,68,false,stim,false,2,815,3,1,0,63806,WMM2,964785,false,false,1306,image-keyboard-response,19
true,11,1,2,1,true,z,false,true,0.0-2.0-0.45-0.407-3.407,1,1,0,90,false,stim,false,1,500,3,1,1,63806,WMM2,966809,false,false,1309,image-keyboard-response,20
true,11,2,2,2,true,d,false,true,0.0-2.0-0.45-0.408-3.408,1,1,0,68,false,stim,false,2,678,3,1,0,63806,WMM2,969017,false,false,1312,image-keyboard-response,21
true,11,1,2,1,true,z,false,true,0.0-2.0-0.45-0.409-3.409,1,1,0,90,false,stim,false,1,426,3,1,1,63806,WMM2,970984,false,false,1315,image-keyboard-response,22
true,11,0,2,1,false,z,true,false,0.0-2.0-0.45-0.410-3.410,1,1,0,81,false,stim,false,2,570,3,0,2,63806,WMM2,973089,false,false,1318,image-keyboard-response,23
true,11,1,2,1,true,z,false,true,0.0-2.0-0.45-0.411-3.411,1,1,0,90,false,stim,false,2,415,3,0,2,63806,WMM2,975033,false,false,1321,image-keyboard-response,24
true,11,2,2,2,true,d,false,true,0.0-2.0-0.45-0.412-3.412,1,1,0,68,false,stim,false,2,509,3,1,0,63806,WMM2,977089,false,false,1324,image-keyboard-response,25
true,11,2,2,1,false,z,false,false,0.0-2.0-0.45-0.413-3.413,1,1,0,68,false,stim,true,2,471,3,0,2,63806,WMM2,979089,false,false,1327,image-keyboard-response,26
true,11,1,2,1,true,z,false,true,0.0-2.0-0.46-0.414-3.414,1,1,0,90,false,stim,false,2,365,3,0,2,63806,WMM2,980985,false,false,1330,image-keyboard-response,27
true,11,1,2,1,true,z,false,false,0.0-2.0-0.46-0.415-3.415,1,1,0,90,false,stim,false,2,498,3,0,2,63806,WMM2,983017,false,true,1333,image-keyboard-response,28
true,11,1,2,1,true,z,false,true,0.0-2.0-0.46-0.416-3.416,1,1,0,90,false,stim,false,1,370,3,0,1,63806,WMM2,984929,false,false,1336,image-keyboard-response,29
true,11,2,2,2,true,d,false,true,0.0-2.0-0.46-0.417-3.417,1,1,0,68,false,stim,false,2,477,3,1,0,63806,WMM2,986937,false,false,1339,image-keyboard-response,30
true,11,1,2,1,true,z,false,true,0.0-2.0-0.46-0.418-3.418,1,1,0,90,false,stim,false,1,394,3,0,1,63806,WMM2,988873,false,false,1342,image-keyboard-response,31
true,11,1,2,1,true,z,false,true,0.0-2.0-0.46-0.419-3.419,1,1,0,90,false,stim,false,1,481,3,0,1,63806,WMM2,990881,false,false,1345,image-keyboard-response,32
true,11,2,2,2,true,d,false,true,0.0-2.0-0.46-0.420-3.420,1,1,0,68,false,stim,false,2,726,3,1,0,63806,WMM2,993145,false,false,1348,image-keyboard-response,33
true,11,2,2,2,true,d,false,true,0.0-2.0-0.46-0.421-3.421,1,1,0,68,false,stim,false,2,737,3,1,0,63806,WMM2,995417,false,false,1351,image-keyboard-response,34
true,11,1,2,1,true,z,false,true,0.0-2.0-0.46-0.422-3.422,1,1,0,90,false,stim,false,2,482,3,1,2,63806,WMM2,997441,false,false,1354,image-keyboard-response,35
true,11,1,2,1,true,z,false,true,0.0-2.0-0.47-0.423-3.423,1,1,0,90,false,stim,false,2,431,3,1,2,63806,WMM2,999401,false,false,1357,image-keyboard-response,36
true,11,1,2,1,true,z,false,true,0.0-2.0-0.47-0.424-3.424,1,1,0,90,false,stim,false,2,464,3,1,2,63806,WMM2,1001392,false,false,1360,image-keyboard-response,37
true,11,1,2,2,false,d,true,false,0.0-2.0-0.47-0.425-3.425,1,1,0,90,false,stim,false,2,457,3,1,0,63806,WMM2,1003385,false,false,1363,image-keyboard-response,38
true,12,1,3,2,false,d,false,false,0.0-2.0-0.47-0.426-3.426,1,0,1,90,true,stim,true,1,548,3,0,1,63806,WMM2,1005457,false,false,1366,image-keyboard-response,1
true,12,1,3,2,false,d,false,false,0.0-2.0-0.47-0.427-3.427,1,0,1,90,false,stim,true,1,677,3,0,1,63806,WMM2,1007665,false,false,1369,image-keyboard-response,2
true,12,2,3,2,true,d,false,true,0.0-2.0-0.47-0.428-3.428,1,0,1,68,false,stim,false,2,787,3,1,0,63806,WMM2,1009977,false,false,1372,image-keyboard-response,3
true,12,1,3,1,true,z,false,true,0.0-2.0-0.47-0.429-3.429,1,0,1,90,false,stim,false,1,603,3,1,2,63806,WMM2,1012112,false,false,1375,image-keyboard-response,4
true,12,1,3,2,false,d,true,true,0.0-2.0-0.47-0.430-3.430,1,0,1,90,false,stim,false,2,491,3,1,0,63806,WMM2,1014129,false,true,1378,image-keyboard-response,5
true,12,0,3,2,false,d,true,false,0.0-2.0-0.47-0.431-3.431,1,0,1,81,false,stim,false,1,1030,3,0,1,63806,WMM2,1016689,false,false,1381,image-keyboard-response,6
true,12,1,3,2,false,d,false,false,0.0-2.0-0.48-0.432-3.432,1,0,1,90,false,stim,true,1,574,3,0,1,63806,WMM2,1018793,false,false,1384,image-keyboard-response,7
true,12,1,3,2,false,d,true,true,0.0-2.0-0.48-0.433-3.433,1,0,1,90,false,stim,false,2,673,3,1,0,63806,WMM2,1020993,false,true,1387,image-keyboard-response,8
true,12,1,3,2,false,d,true,false,0.0-2.0-0.48-0.434-3.434,1,0,1,90,false,stim,false,2,616,3,1,0,63806,WMM2,1023144,false,false,1390,image-keyboard-response,9
true,12,2,3,2,true,d,false,true,0.0-2.0-0.48-0.435-3.435,1,0,1,68,false,stim,false,1,783,3,0,1,63806,WMM2,1025440,false,false,1393,image-keyboard-response,10
true,12,1,3,1,true,z,false,true,0.0-2.0-0.48-0.436-3.436,1,0,1,90,false,stim,false,1,413,3,1,2,63806,WMM2,1027393,false,false,1396,image-keyboard-response,11
true,12,1,3,2,false,d,true,false,0.0-2.0-0.48-0.437-3.437,1,0,1,90,false,stim,false,2,1024,3,1,0,63806,WMM2,1029952,false,false,1399,image-keyboard-response,12
true,12,2,3,2,true,d,false,false,0.0-2.0-0.48-0.438-3.438,1,0,1,68,false,stim,false,1,551,3,0,1,63806,WMM2,1032056,false,true,1402,image-keyboard-response,13
true,12,1,3,1,true,z,false,true,0.0-2.0-0.48-0.439-3.439,1,0,1,90,false,stim,false,1,777,3,1,2,63806,WMM2,1034377,false,false,1405,image-keyboard-response,14
true,12,1,3,1,true,z,false,true,0.0-2.0-0.48-0.440-3.440,1,0,1,90,false,stim,false,1,643,3,1,2,63806,WMM2,1036552,false,false,1408,image-keyboard-response,15
true,12,2,3,2,true,d,false,false,0.0-2.0-0.49-0.441-3.441,1,0,1,68,false,stim,false,1,545,3,0,1,63806,WMM2,1038625,false,true,1411,image-keyboard-response,16
true,12,1,3,1,true,z,false,true,0.0-2.0-0.49-0.442-3.442,1,0,1,90,false,stim,false,1,506,3,1,2,63806,WMM2,1040664,false,false,1414,image-keyboard-response,17
true,12,1,3,1,true,z,false,false,0.0-2.0-0.49-0.443-3.443,1,0,1,90,false,stim,false,1,473,3,1,2,63806,WMM2,1042673,false,true,1417,image-keyboard-response,18
true,12,1,3,2,false,d,false,false,0.0-2.0-0.49-0.444-3.444,1,0,1,90,false,stim,true,1,322,3,0,1,63806,WMM2,1044520,false,false,1420,image-keyboard-response,19
true,12,1,3,1,true,z,false,true,0.0-2.0-0.49-0.445-3.445,1,0,1,90,false,stim,false,1,605,3,1,2,63806,WMM2,1046665,false,false,1423,image-keyboard-response,20
true,12,1,3,2,false,d,true,true,0.0-2.0-0.49-0.446-3.446,1,0,1,90,false,stim,false,2,578,3,1,0,63806,WMM2,1048776,false,true,1426,image-keyboard-response,21
true,12,1,3,2,false,d,true,false,0.0-2.0-0.49-0.447-3.447,1,0,1,90,false,stim,false,2,361,3,1,0,63806,WMM2,1050680,false,false,1429,image-keyboard-response,22
true,12,1,3,2,false,d,true,false,0.0-2.0-0.49-0.448-3.448,1,0,1,90,false,stim,false,2,367,3,1,0,63806,WMM2,1052584,false,false,1432,image-keyboard-response,23
true,12,0,3,2,false,d,true,false,0.0-2.0-0.49-0.449-3.449,1,0,1,81,false,stim,false,1,458,3,0,1,63806,WMM2,1054577,false,false,1435,image-keyboard-response,24
true,12,1,3,1,true,z,false,true,0.0-2.0-0.50-0.450-3.450,1,0,1,90,false,stim,false,1,601,3,1,2,63806,WMM2,1056721,false,false,1438,image-keyboard-response,25
true,12,0,3,2,false,d,true,false,0.0-2.0-0.50-0.451-3.451,1,0,1,81,false,stim,false,1,1310,3,0,1,63806,WMM2,1059569,false,false,1441,image-keyboard-response,26
true,12,1,3,2,false,d,true,false,0.0-2.0-0.50-0.452-3.452,1,0,1,90,false,stim,false,2,653,3,1,0,63806,WMM2,1061752,false,false,1444,image-keyboard-response,27
true,12,1,3,1,true,z,false,true,0.0-2.0-0.50-0.453-3.453,1,0,1,90,false,stim,false,1,781,3,1,2,63806,WMM2,1064081,false,false,1447,image-keyboard-response,28
true,12,1,3,2,false,d,true,false,0.0-2.0-0.50-0.454-3.454,1,0,1,90,false,stim,false,2,1357,3,1,0,63806,WMM2,1066977,false,false,1450,image-keyboard-response,29
true,12,1,3,1,true,z,false,true,0.0-2.0-0.50-0.455-3.455,1,0,1,90,false,stim,false,1,709,3,1,2,63806,WMM2,1069217,false,false,1453,image-keyboard-response,30
true,12,2,3,2,true,d,false,true,0.0-2.0-0.50-0.456-3.456,1,0,1,68,false,stim,false,1,409,3,0,1,63806,WMM2,1071169,false,false,1456,image-keyboard-response,31
true,12,2,3,2,true,d,false,true,0.0-2.0-0.50-0.457-3.457,1,0,1,68,false,stim,false,2,574,3,1,0,63806,WMM2,1073272,false,false,1459,image-keyboard-response,32
true,12,2,3,2,true,d,false,true,0.0-2.0-0.50-0.458-3.458,1,0,1,68,false,stim,false,1,495,3,0,1,63806,WMM2,1075305,false,false,1462,image-keyboard-response,33
true,12,2,3,2,true,d,false,true,0.0-2.0-0.51-0.459-3.459,1,0,1,68,false,stim,false,2,384,3,1,0,63806,WMM2,1077232,false,false,1465,image-keyboard-response,34
true,12,2,3,2,true,d,false,true,0.0-2.0-0.51-0.460-3.460,1,0,1,68,false,stim,false,2,393,3,0,0,63806,WMM2,1079161,false,false,1468,image-keyboard-response,35
true,12,2,3,2,true,d,false,true,0.0-2.0-0.51-0.461-3.461,1,0,1,68,false,stim,false,1,424,3,1,1,63806,WMM2,1081112,false,false,1471,image-keyboard-response,36
true,12,2,3,2,true,d,false,true,0.0-2.0-0.51-0.462-3.462,1,0,1,68,false,stim,false,2,583,3,0,0,63806,WMM2,1083233,false,false,1474,image-keyboard-response,37
true,12,1,3,1,true,z,false,true,0.0-2.0-0.51-0.463-3.463,1,0,1,90,false,stim,false,1,720,3,1,2,63806,WMM2,1085488,false,false,1477,image-keyboard-response,38
true,12,2,3,2,true,d,false,true,0.0-2.0-0.51-0.464-3.464,1,0,1,68,false,stim,false,1,499,3,1,1,63806,WMM2,1087528,false,false,1480,image-keyboard-response,39
true,12,1,3,1,true,z,false,false,0.0-2.0-0.51-0.465-3.465,1,0,1,90,false,stim,false,1,677,3,1,2,63806,WMM2,1089744,false,true,1483,image-keyboard-response,40
true,12,1,3,1,true,z,false,true,0.0-2.0-0.51-0.466-3.466,1,0,1,90,false,stim,false,1,694,3,1,2,63806,WMM2,1091953,false,false,1486,image-keyboard-response,41
true,12,2,3,2,true,d,false,false,0.0-2.0-0.51-0.467-3.467,1,0,1,68,false,stim,false,1,659,3,1,1,63806,WMM2,1094137,false,true,1489,image-keyboard-response,42
true,12,1,3,1,true,z,false,true,0.0-2.0-0.52-0.468-3.468,1,0,1,90,false,stim,false,1,538,3,1,2,63806,WMM2,1096217,false,false,1492,image-keyboard-response,43
true,12,1,3,1,true,z,false,true,0.0-2.0-0.52-0.469-3.469,1,0,1,90,false,stim,false,1,1473,3,1,2,63806,WMM2,1099233,false,false,1495,image-keyboard-response,44
true,13,2,2,2,true,d,false,true,0.0-2.0-0.52-0.470-3.470,0,1,1,68,true,stim,false,2,371,3,1,1,63806,WMM2,1101121,false,false,1498,image-keyboard-response,1
true,13,2,2,1,false,z,false,false,0.0-2.0-0.52-0.471-3.471,0,1,1,68,false,stim,true,2,442,3,0,0,63806,WMM2,1103153,false,false,1501,image-keyboard-response,2
true,13,1,2,1,true,z,false,true,0.0-2.0-0.52-0.472-3.472,0,1,1,90,false,stim,false,1,656,3,1,2,63806,WMM2,1105344,false,false,1504,image-keyboard-response,3
true,13,2,2,2,true,d,false,false,0.0-2.0-0.52-0.473-3.473,0,1,1,68,false,stim,false,2,426,3,1,1,63806,WMM2,1107304,false,true,1507,image-keyboard-response,4
true,13,2,2,2,true,d,false,true,0.0-2.0-0.52-0.474-3.474,0,1,1,68,false,stim,false,2,385,3,1,1,63806,WMM2,1109225,false,false,1510,image-keyboard-response,5
true,13,2,2,1,false,z,false,false,0.0-2.0-0.52-0.475-3.475,0,1,1,68,false,stim,true,2,801,3,0,0,63806,WMM2,1111560,false,false,1513,image-keyboard-response,6
true,13,2,2,1,false,z,false,false,0.0-2.0-0.52-0.476-3.476,0,1,1,68,false,stim,true,2,541,3,0,0,63806,WMM2,1113641,false,false,1516,image-keyboard-response,7
true,13,0,2,1,false,z,true,false,0.0-2.0-0.53-0.477-3.477,0,1,1,81,false,stim,false,2,790,3,0,0,63806,WMM2,1115968,false,false,1519,image-keyboard-response,8
true,13,1,2,1,true,z,false,true,0.0-2.0-0.53-0.478-3.478,0,1,1,90,false,stim,false,1,607,3,1,2,63806,WMM2,1118104,false,false,1522,image-keyboard-response,9
true,13,1,2,1,true,z,false,true,0.0-2.0-0.53-0.479-3.479,0,1,1,90,false,stim,false,2,345,3,0,0,63806,WMM2,1119985,false,false,1525,image-keyboard-response,10
true,13,1,2,1,true,z,false,false,0.0-2.0-0.53-0.480-3.480,0,1,1,90,false,stim,false,2,362,3,0,0,63806,WMM2,1121880,false,true,1528,image-keyboard-response,11
true,13,2,2,2,true,d,false,true,0.0-2.0-0.53-0.481-3.481,0,1,1,68,false,stim,false,2,597,3,1,1,63806,WMM2,1124017,false,false,1531,image-keyboard-response,12
true,13,1,2,1,true,z,false,true,0.0-2.0-0.53-0.482-3.482,0,1,1,90,false,stim,false,1,401,3,1,2,63806,WMM2,1125960,false,false,1534,image-keyboard-response,13
true,13,2,2,2,true,d,false,true,0.0-2.0-0.53-0.483-3.483,0,1,1,68,false,stim,false,2,646,3,1,1,63806,WMM2,1128144,false,false,1537,image-keyboard-response,14
true,13,1,2,1,true,z,false,true,0.0-2.0-0.53-0.484-3.484,0,1,1,90,false,stim,false,1,642,3,1,2,63806,WMM2,1130320,false,false,1540,image-keyboard-response,15
true,13,2,2,2,true,d,false,true,0.0-2.0-0.53-0.485-3.485,0,1,1,68,false,stim,false,2,565,3,1,1,63806,WMM2,1132425,false,false,1543,image-keyboard-response,16
true,13,1,2,1,true,z,false,true,0.0-2.0-0.54-0.486-3.486,0,1,1,90,false,stim,false,1,609,3,1,2,63806,WMM2,1134568,false,false,1546,image-keyboard-response,17
true,13,1,2,1,true,z,false,true,0.0-2.0-0.54-0.487-3.487,0,1,1,90,false,stim,false,2,365,3,0,0,63806,WMM2,1136465,false,false,1549,image-keyboard-response,18
true,13,2,2,2,true,d,false,true,0.0-2.0-0.54-0.488-3.488,0,1,1,68,false,stim,false,2,538,3,1,1,63806,WMM2,1138536,false,false,1552,image-keyboard-response,19
true,13,2,2,2,true,d,false,true,0.0-2.0-0.54-0.489-3.489,0,1,1,68,false,stim,false,2,515,3,1,1,63806,WMM2,1140585,false,false,1555,image-keyboard-response,20
true,13,1,2,1,true,z,false,true,0.0-2.0-0.54-0.490-3.490,0,1,1,90,false,stim,false,1,400,3,0,2,63806,WMM2,1142529,false,false,1558,image-keyboard-response,21
true,13,1,2,1,true,z,false,true,0.0-2.0-0.54-0.491-3.491,0,1,1,90,false,stim,false,1,613,3,0,2,63806,WMM2,1144681,false,false,1561,image-keyboard-response,22
true,13,2,2,2,true,d,false,false,0.0-2.0-0.54-0.492-3.492,0,1,1,68,false,stim,false,2,655,3,1,1,63806,WMM2,1146865,false,true,1564,image-keyboard-response,23
true,13,1,2,1,true,z,false,false,0.0-2.0-0.54-0.493-3.493,0,1,1,90,false,stim,false,2,500,3,1,0,63806,WMM2,1148889,false,true,1567,image-keyboard-response,24
true,13,1,2,1,true,z,false,true,0.0-2.0-0.54-0.494-3.494,0,1,1,90,false,stim,false,2,428,3,1,0,63806,WMM2,1150856,false,false,1570,image-keyboard-response,25
true,13,1,2,1,true,z,false,true,0.0-2.0-0.55-0.495-3.495,0,1,1,90,false,stim,false,2,388,3,1,0,63806,WMM2,1152776,false,false,1573,image-keyboard-response,26
true,13,1,2,1,true,z,false,false,0.0-2.0-0.55-0.496-3.496,0,1,1,90,false,stim,false,1,725,3,0,2,63806,WMM2,1155032,false,true,1576,image-keyboard-response,27
true,13,1,2,1,true,z,false,true,0.0-2.0-0.55-0.497-3.497,0,1,1,90,false,stim,false,1,407,3,0,2,63806,WMM2,1156976,false,false,1579,image-keyboard-response,28
true,13,1,2,1,true,z,false,true,0.0-2.0-0.55-0.498-3.498,0,1,1,90,false,stim,false,2,627,3,1,0,63806,WMM2,1159137,false,false,1582,image-keyboard-response,29
true,13,1,2,1,true,z,false,true,0.0-2.0-0.55-0.499-3.499,0,1,1,90,false,stim,false,2,452,3,1,0,63806,WMM2,1161121,false,false,1585,image-keyboard-response,30
true,14,0,0,1,false,z,true,false,0.0-2.0-0.55-0.500-3.500,1,1,0,81,true,stim,false,1,742,3,0,2,63806,WMM2,1204601,false,false,1629,image-keyboard-response,1
true,14,0,0,2,false,d,true,false,0.0-2.0-0.55-0.501-3.501,1,1,0,81,false,stim,false,2,397,3,1,1,63806,WMM2,1206536,false,false,1632,image-keyboard-response,2
true,14,0,0,2,false,d,true,false,0.0-2.0-0.55-0.502-3.502,1,1,0,81,false,stim,false,2,1297,3,1,1,63806,WMM2,1209377,false,false,1635,image-keyboard-response,3
true,14,1,0,2,false,d,true,false,0.0-2.0-0.55-0.503-3.503,1,1,0,90,false,stim,false,2,634,3,1,1,63806,WMM2,1211552,false,false,1638,image-keyboard-response,4
true,14,1,0,1,true,z,false,true,0.0-2.0-0.56-0.504-3.504,1,1,0,90,false,stim,false,1,937,3,0,2,63806,WMM2,1214017,false,false,1641,image-keyboard-response,5
true,14,2,0,2,true,d,false,true,0.0-2.0-0.56-0.505-3.505,1,1,0,68,false,stim,false,2,554,3,1,1,63806,WMM2,1216113,false,false,1644,image-keyboard-response,6
true,14,0,0,1,false,z,true,false,0.0-2.0-0.56-0.506-3.506,1,1,0,81,false,stim,false,1,369,3,1,0,63806,WMM2,1218008,false,false,1647,image-keyboard-response,7
true,14,2,0,2,true,d,false,true,0.0-2.0-0.56-0.507-3.507,1,1,0,68,false,stim,false,2,525,3,1,1,63806,WMM2,1220064,false,false,1650,image-keyboard-response,8
true,14,1,0,1,true,z,false,true,0.0-2.0-0.56-0.508-3.508,1,1,0,90,false,stim,false,1,901,3,1,0,63806,WMM2,1222488,false,false,1653,image-keyboard-response,9
true,14,1,0,1,true,z,false,true,0.0-2.0-0.56-0.509-3.509,1,1,0,90,false,stim,false,1,389,3,1,0,63806,WMM2,1224408,false,false,1656,image-keyboard-response,10
true,14,1,0,1,true,z,false,true,0.0-2.0-0.56-0.510-3.510,1,1,0,90,false,stim,false,1,389,3,0,2,63806,WMM2,1226329,false,false,1659,image-keyboard-response,11
true,14,2,0,2,true,d,false,true,0.0-2.0-0.56-0.511-3.511,1,1,0,68,false,stim,false,2,709,3,1,1,63806,WMM2,1228569,false,false,1662,image-keyboard-response,12
true,14,1,0,1,true,z,false,true,0.0-2.0-0.56-0.512-3.512,1,1,0,90,false,stim,false,1,421,3,0,2,63806,WMM2,1230521,false,false,1665,image-keyboard-response,13
true,14,2,0,2,true,d,false,true,0.0-2.0-0.57-0.513-3.513,1,1,0,68,false,stim,false,2,469,3,1,1,63806,WMM2,1232529,false,false,1668,image-keyboard-response,14
true,14,1,0,1,true,z,false,true,0.0-2.0-0.57-0.514-3.514,1,1,0,90,false,stim,false,1,509,3,0,2,63806,WMM2,1234568,false,false,1671,image-keyboard-response,15
true,14,1,0,1,true,z,false,true,0.0-2.0-0.57-0.515-3.515,1,1,0,90,false,stim,false,1,478,3,0,2,63806,WMM2,1236576,false,false,1674,image-keyboard-response,16
true,14,2,0,2,true,d,false,true,0.0-2.0-0.57-0.516-3.516,1,1,0,68,false,stim,false,2,626,3,1,1,63806,WMM2,1238745,false,false,1677,image-keyboard-response,17
true,14,2,0,2,true,d,false,true,0.0-2.0-0.57-0.517-3.517,1,1,0,68,false,stim,false,2,745,3,1,1,63806,WMM2,1241024,false,false,1680,image-keyboard-response,18
true,14,1,0,1,true,z,false,true,0.0-2.0-0.57-0.518-3.518,1,1,0,90,false,stim,false,1,386,3,0,2,63806,WMM2,1242945,false,false,1683,image-keyboard-response,19
true,14,1,0,1,true,z,false,false,0.0-2.0-0.57-0.519-3.519,1,1,0,90,false,stim,false,1,370,3,1,0,63806,WMM2,1244848,false,true,1686,image-keyboard-response,20
true,14,1,0,1,true,z,false,true,0.0-2.0-0.57-0.520-3.520,1,1,0,90,false,stim,false,1,506,3,1,0,63806,WMM2,1246904,false,false,1689,image-keyboard-response,21
true,14,1,0,1,true,z,false,true,0.0-2.0-0.57-0.521-3.521,1,1,0,90,false,stim,false,1,529,3,1,0,63806,WMM2,1248968,false,false,1692,image-keyboard-response,22
true,14,1,0,1,true,z,false,true,0.0-2.0-0.58-0.522-3.522,1,1,0,90,false,stim,false,1,462,3,1,0,63806,WMM2,1250960,false,false,1695,image-keyboard-response,23
true,14,1,0,1,true,z,false,true,0.0-2.0-0.58-0.523-3.523,1,1,0,90,false,stim,false,1,478,3,1,0,63806,WMM2,1252976,false,false,1698,image-keyboard-response,24
true,14,1,0,1,true,z,false,true,0.0-2.0-0.58-0.524-3.524,1,1,0,90,false,stim,false,1,840,3,0,2,63806,WMM2,1255401,false,false,1701,image-keyboard-response,25
true,14,2,0,2,true,d,false,false,0.0-2.0-0.58-0.525-3.525,1,1,0,68,false,stim,false,2,414,3,0,1,63806,WMM2,1257352,false,true,1704,image-keyboard-response,26
true,14,2,0,2,true,d,false,false,0.0-2.0-0.58-0.526-3.526,1,1,0,68,false,stim,false,2,378,3,0,1,63806,WMM2,1259256,false,true,1707,image-keyboard-response,27
true,14,1,0,1,true,z,false,true,0.0-2.0-0.58-0.527-3.527,1,1,0,90,false,stim,false,1,561,3,0,2,63806,WMM2,1261360,false,false,1710,image-keyboard-response,28
true,14,1,0,1,true,z,false,true,0.0-2.0-0.58-0.528-3.528,1,1,0,90,false,stim,false,1,583,3,1,0,63806,WMM2,1263472,false,false,1713,image-keyboard-response,29
true,14,1,0,1,true,z,false,true,0.0-2.0-0.58-0.529-3.529,1,1,0,90,false,stim,false,1,681,3,0,2,63806,WMM2,1265680,false,false,1716,image-keyboard-response,30
true,15,2,1,1,false,z,false,false,0.0-2.0-0.58-0.530-3.530,1,0,0,68,true,stim,true,2,551,3,0,1,63806,WMM2,1267760,false,false,1719,image-keyboard-response,1
true,15,1,1,2,false,d,false,false,0.0-2.0-0.59-0.531-3.531,1,0,0,90,false,stim,true,1,495,3,0,2,63806,WMM2,1269784,false,false,1722,image-keyboard-response,2
true,15,1,1,1,true,z,false,true,0.0-2.0-0.59-0.532-3.532,1,0,0,90,false,stim,false,1,563,3,1,0,63806,WMM2,1271872,false,false,1725,image-keyboard-response,3
true,15,0,1,1,false,z,true,false,0.0-2.0-0.59-0.533-3.533,1,0,0,81,false,stim,false,2,528,3,0,1,63806,WMM2,1273936,false,false,1728,image-keyboard-response,4
true,15,1,1,1,true,z,false,true,0.0-2.0-0.59-0.534-3.534,1,0,0,90,false,stim,false,2,1268,3,0,1,63806,WMM2,1276736,false,false,1731,image-keyboard-response,5
true,15,2,1,2,true,d,false,true,0.0-2.0-0.59-0.535-3.535,1,0,0,68,false,stim,false,1,609,3,0,2,63806,WMM2,1278888,false,false,1734,image-keyboard-response,6
true,15,1,1,1,true,z,false,false,0.0-2.0-0.59-0.536-3.536,1,0,0,90,false,stim,false,2,670,3,0,1,63806,WMM2,1281089,false,true,1737,image-keyboard-response,7
true,15,2,1,2,true,d,false,true,0.0-2.0-0.59-0.537-3.537,1,0,0,68,false,stim,false,1,398,3,0,2,63806,WMM2,1283016,false,false,1740,image-keyboard-response,8
true,15,1,1,1,true,z,false,true,0.0-2.0-0.59-0.538-3.538,1,0,0,90,false,stim,false,1,449,3,1,0,63806,WMM2,1285009,false,false,1743,image-keyboard-response,9
true,15,1,1,1,true,z,false,true,0.0-2.0-0.59-0.539-3.539,1,0,0,90,false,stim,false,1,502,3,1,0,63806,WMM2,1287040,false,false,1746,image-keyboard-response,10
true,15,1,1,1,true,z,false,true,0.0-2.0-0.60-0.540-3.540,1,0,0,90,false,stim,false,2,390,3,0,1,63806,WMM2,1288968,false,false,1749,image-keyboard-response,11
true,15,1,1,1,true,z,false,true,0.0-2.0-0.60-0.541-3.541,1,0,0,90,false,stim,false,1,406,3,1,0,63806,WMM2,1290904,false,false,1752,image-keyboard-response,12
true,15,1,1,1,true,z,false,true,0.0-2.0-0.60-0.542-3.542,1,0,0,90,false,stim,false,2,370,3,0,1,63806,WMM2,1292808,false,false,1755,image-keyboard-response,13
true,15,2,1,2,true,d,false,true,0.0-2.0-0.60-0.543-3.543,1,0,0,68,false,stim,false,1,629,3,0,2,63806,WMM2,1294968,false,false,1758,image-keyboard-response,14
true,15,1,1,1,true,z,false,true,0.0-2.0-0.60-0.544-3.544,1,0,0,90,false,stim,false,1,430,3,1,0,63806,WMM2,1296928,false,false,1761,image-keyboard-response,15
true,15,2,1,2,true,d,false,true,0.0-2.0-0.60-0.545-3.545,1,0,0,68,false,stim,false,1,543,3,0,2,63806,WMM2,1299008,false,false,1764,image-keyboard-response,16
true,15,1,1,1,true,z,false,true,0.0-2.0-0.60-0.546-3.546,1,0,0,90,false,stim,false,2,749,3,0,1,63806,WMM2,1301288,false,false,1767,image-keyboard-response,17
true,15,2,1,2,true,d,false,true,0.0-2.0-0.60-0.547-3.547,1,0,0,68,false,stim,false,1,486,3,0,2,63806,WMM2,1303304,false,false,1770,image-keyboard-response,18
true,15,1,1,1,true,z,false,true,0.0-2.0-0.60-0.548-3.548,1,0,0,90,false,stim,false,1,409,3,1,0,63806,WMM2,1305248,false,false,1773,image-keyboard-response,19
true,15,2,1,2,true,d,false,true,0.0-2.0-0.61-0.549-3.549,1,0,0,68,false,stim,false,1,518,3,0,2,63806,WMM2,1307296,false,false,1776,image-keyboard-response,20
true,15,1,1,1,true,z,false,true,0.0-2.0-0.61-0.550-3.550,1,0,0,90,false,stim,false,2,370,3,1,1,63806,WMM2,1309208,false,false,1779,image-keyboard-response,21
true,15,2,1,2,true,d,false,false,0.0-2.0-0.61-0.551-3.551,1,0,0,68,false,stim,false,1,493,3,1,2,63806,WMM2,1311232,false,true,1782,image-keyboard-response,22
true,15,1,1,1,true,z,false,true,0.0-2.0-0.61-0.552-3.552,1,0,0,90,false,stim,false,2,519,3,1,1,63806,WMM2,1313296,false,false,1785,image-keyboard-response,23
true,15,1,1,1,true,z,false,true,0.0-2.0-0.61-0.553-3.553,1,0,0,90,false,stim,false,1,474,3,0,0,63806,WMM2,1315312,false,false,1788,image-keyboard-response,24
true,15,1,1,1,true,z,false,true,0.0-2.0-0.61-0.554-3.554,1,0,0,90,false,stim,false,1,498,3,0,0,63806,WMM2,1317336,false,false,1791,image-keyboard-response,25
true,15,1,1,1,true,z,false,true,0.0-2.0-0.61-0.555-3.555,1,0,0,90,false,stim,false,2,650,3,1,1,63806,WMM2,1319528,false,false,1794,image-keyboard-response,26
true,15,1,1,1,true,z,false,true,0.0-2.0-0.61-0.556-3.556,1,0,0,90,false,stim,false,1,518,3,0,0,63806,WMM2,1321577,false,false,1797,image-keyboard-response,27
true,15,2,1,2,true,d,false,true,0.0-2.0-0.61-0.557-3.557,1,0,0,68,false,stim,false,1,515,3,1,2,63806,WMM2,1323633,false,false,1800,image-keyboard-response,28
true,15,1,1,1,true,z,false,false,0.0-2.0-0.62-0.558-3.558,1,0,0,90,false,stim,false,1,449,3,0,0,63806,WMM2,1325648,false,true,1803,image-keyboard-response,29
true,15,1,1,1,true,z,false,false,0.0-2.0-0.62-0.559-3.559,1,0,0,90,false,stim,false,2,422,3,1,1,63806,WMM2,1327601,false,true,1806,image-keyboard-response,30
true,16,1,4,1,true,z,false,true,0.0-2.0-0.62-0.560-3.560,0,1,1,90,true,stim,false,1,526,3,1,1,63806,WMM2,1329664,false,false,1809,image-keyboard-response,1
true,16,1,4,1,true,z,false,true,0.0-2.0-0.62-0.561-3.561,0,1,1,90,false,stim,false,1,546,3,1,1,63806,WMM2,1331744,false,false,1812,image-keyboard-response,2
true,16,1,4,1,true,z,false,true,0.0-2.0-0.62-0.562-3.562,0,1,1,90,false,stim,false,1,386,3,0,0,63806,WMM2,1333664,false,false,1815,image-keyboard-response,3
true,16,1,4,1,true,z,false,true,0.0-2.0-0.62-0.563-3.563,0,1,1,90,false,stim,false,1,451,3,0,0,63806,WMM2,1335648,false,false,1818,image-keyboard-response,4
true,16,2,4,2,true,d,false,true,0.0-2.0-0.62-0.564-3.564,0,1,1,68,false,stim,false,2,686,3,1,2,63806,WMM2,1337864,false,false,1821,image-keyboard-response,5
true,16,2,4,2,true,d,false,true,0.0-2.0-0.62-0.565-3.565,0,1,1,68,false,stim,false,2,522,3,1,2,63806,WMM2,1339920,false,false,1824,image-keyboard-response,6
true,16,2,4,2,true,d,false,true,0.0-2.0-0.62-0.566-3.566,0,1,1,68,false,stim,false,2,464,3,1,2,63806,WMM2,1341912,false,false,1827,image-keyboard-response,7
true,16,1,4,1,true,z,false,true,0.0-2.0-0.63-0.567-3.567,0,1,1,90,false,stim,false,1,610,3,1,1,63806,WMM2,1344048,false,false,1830,image-keyboard-response,8
true,16,2,4,2,true,d,false,false,0.0-2.0-0.63-0.568-3.568,0,1,1,68,false,stim,false,2,502,3,1,2,63806,WMM2,1346080,false,true,1833,image-keyboard-response,9
true,16,1,4,1,true,z,false,false,0.0-2.0-0.63-0.569-3.569,0,1,1,90,false,stim,false,1,494,3,1,1,63806,WMM2,1348112,false,true,1836,image-keyboard-response,10
true,16,1,4,1,true,z,false,false,0.0-2.0-0.63-0.570-3.570,0,1,1,90,false,stim,false,1,554,3,0,0,63806,WMM2,1350192,false,true,1839,image-keyboard-response,11
true,16,1,4,1,true,z,false,true,0.0-2.0-0.63-0.571-3.571,0,1,1,90,false,stim,false,1,386,3,1,1,63806,WMM2,1352104,false,false,1842,image-keyboard-response,12
true,16,1,4,1,true,z,false,true,0.0-2.0-0.63-0.572-3.572,0,1,1,90,false,stim,false,1,361,3,0,0,63806,WMM2,1353999,false,false,1845,image-keyboard-response,13
true,16,2,4,2,true,d,false,false,0.0-2.0-0.63-0.573-3.573,0,1,1,68,false,stim,false,2,398,3,1,2,63806,WMM2,1355936,false,true,1848,image-keyboard-response,14
true,16,2,4,2,true,d,false,false,0.0-2.0-0.63-0.574-3.574,0,1,1,68,false,stim,false,2,497,3,1,2,63806,WMM2,1357976,false,true,1851,image-keyboard-response,15
true,16,1,4,1,true,z,false,true,0.0-2.0-0.63-0.575-3.575,0,1,1,90,false,stim,false,1,697,3,0,0,63806,WMM2,1360216,false,false,1854,image-keyboard-response,16
true,16,0,4,2,false,d,true,false,0.0-2.0-0.64-0.576-3.576,0,1,1,81,false,stim,false,2,386,3,1,2,63806,WMM2,1362144,false,false,1857,image-keyboard-response,17
true,16,1,4,2,false,d,true,false,0.0-2.0-0.64-0.577-3.577,0,1,1,90,false,stim,false,2,442,3,1,2,63806,WMM2,1364120,false,false,1860,image-keyboard-response,18
true,16,1,4,1,true,z,false,true,0.0-2.0-0.64-0.578-3.578,0,1,1,90,false,stim,false,1,541,3,0,0,63806,WMM2,1366200,false,false,1863,image-keyboard-response,19
true,16,1,4,1,true,z,false,false,0.0-2.0-0.64-0.579-3.579,0,1,1,90,false,stim,false,1,382,3,1,1,63806,WMM2,1368120,false,true,1866,image-keyboard-response,20
true,16,1,4,1,true,z,false,false,0.0-2.0-0.64-0.580-3.580,0,1,1,90,false,stim,false,1,778,3,0,0,63806,WMM2,1370457,false,true,1869,image-keyboard-response,21
true,16,1,4,1,true,z,false,false,0.0-2.0-0.64-0.581-3.581,0,1,1,90,false,stim,false,1,473,3,0,0,63806,WMM2,1372473,false,true,1872,image-keyboard-response,22
true,16,2,4,1,false,z,true,false,0.0-2.0-0.64-0.582-3.582,0,1,1,68,false,stim,false,1,430,3,1,1,63806,WMM2,1374448,false,false,1875,image-keyboard-response,23
true,16,0,4,1,false,z,true,false,0.0-2.0-0.64-0.583-3.583,0,1,1,81,false,stim,false,1,730,3,1,1,63806,WMM2,1376728,false,false,1878,image-keyboard-response,24
true,16,2,4,2,true,d,false,true,0.0-2.0-0.64-0.584-3.584,0,1,1,68,false,stim,false,2,777,3,1,2,63806,WMM2,1379056,false,false,1881,image-keyboard-response,25
true,16,1,4,1,true,z,false,true,0.0-2.0-0.65-0.585-3.585,0,1,1,90,false,stim,false,1,673,3,0,0,63806,WMM2,1381272,false,false,1884,image-keyboard-response,26
true,16,1,4,1,true,z,false,true,0.0-2.0-0.65-0.586-3.586,0,1,1,90,false,stim,false,1,669,3,0,0,63806,WMM2,1383488,false,false,1887,image-keyboard-response,27
true,16,1,4,1,true,z,false,true,0.0-2.0-0.65-0.587-3.587,0,1,1,90,false,stim,false,1,393,3,1,1,63806,WMM2,1385431,false,false,1890,image-keyboard-response,28
true,16,2,4,2,true,d,false,false,0.0-2.0-0.65-0.588-3.588,0,1,1,68,false,stim,false,2,476,3,1,2,63806,WMM2,1387456,false,true,1893,image-keyboard-response,29
true,16,1,4,1,true,z,false,true,0.0-2.0-0.65-0.589-3.589,0,1,1,90,false,stim,false,1,425,3,1,1,63806,WMM2,1389424,false,false,1896,image-keyboard-response,30
true,16,2,4,2,true,d,false,true,0.0-2.0-0.65-0.590-3.590,0,1,1,68,false,stim,false,2,601,3,0,2,63806,WMM2,1391560,false,false,1899,image-keyboard-response,31
true,16,2,4,2,true,d,false,true,0.0-2.0-0.65-0.591-3.591,0,1,1,68,false,stim,false,2,608,3,0,2,63806,WMM2,1393735,false,false,1902,image-keyboard-response,32
true,16,1,4,1,true,z,false,true,0.0-2.0-0.65-0.592-3.592,0,1,1,90,false,stim,false,1,561,3,1,1,63806,WMM2,1395839,false,false,1905,image-keyboard-response,33
true,16,1,4,1,true,z,false,true,0.0-2.0-0.65-0.593-3.593,0,1,1,90,false,stim,false,1,383,3,0,0,63806,WMM2,1397760,false,false,1908,image-keyboard-response,34
true,16,1,4,1,true,z,false,true,0.0-2.0-0.66-0.594-3.594,0,1,1,90,false,stim,false,1,526,3,0,0,63806,WMM2,1399824,false,false,1911,image-keyboard-response,35
true,16,2,4,2,true,d,false,true,0.0-2.0-0.66-0.595-3.595,0,1,1,68,false,stim,false,2,530,3,0,2,63806,WMM2,1401889,false,false,1914,image-keyboard-response,36
true,16,1,4,1,true,z,false,false,0.0-2.0-0.66-0.596-3.596,0,1,1,90,false,stim,false,1,382,3,1,1,63806,WMM2,1403800,false,true,1917,image-keyboard-response,37
true,16,1,4,1,true,z,false,true,0.0-2.0-0.66-0.597-3.597,0,1,1,90,false,stim,false,1,429,3,0,0,63806,WMM2,1405768,false,false,1920,image-keyboard-response,38
true,16,1,4,1,true,z,false,true,0.0-2.0-0.66-0.598-3.598,0,1,1,90,false,stim,false,1,373,3,1,1,63806,WMM2,1407672,false,false,1923,image-keyboard-response,39
true,16,1,4,1,true,z,false,true,0.0-2.0-0.66-0.599-3.599,0,1,1,90,false,stim,false,1,418,3,1,1,63806,WMM2,1409615,false,false,1926,image-keyboard-response,40
true,17,2,1,0,false,q,false,false,0.0-2.0-0.66-0.600-3.600,0,1,0,68,true,stim,true,2,545,3,0,2,63806,WMM2,1411704,false,false,1929,image-keyboard-response,1
true,17,2,1,0,false,q,false,false,0.0-2.0-0.66-0.601-3.601,0,1,0,68,false,stim,true,2,474,3,0,2,63806,WMM2,1413712,false,false,1932,image-keyboard-response,2
true,17,1,1,2,false,d,false,false,0.0-2.0-0.66-0.602-3.602,0,1,0,90,false,stim,true,1,506,3,0,0,63806,WMM2,1415744,false,false,1935,image-keyboard-response,3
true,17,1,1,1,true,z,false,true,0.0-2.0-0.67-0.603-3.603,0,1,0,90,false,stim,false,1,457,3,1,1,63806,WMM2,1417735,false,false,1938,image-keyboard-response,4
true,17,1,1,1,true,z,false,true,0.0-2.0-0.67-0.604-3.604,0,1,0,90,false,stim,false,1,513,3,1,1,63806,WMM2,1419792,false,false,1941,image-keyboard-response,5
true,17,1,1,2,false,d,false,false,0.0-2.0-0.67-0.605-3.605,0,1,0,90,false,stim,true,1,626,3,0,0,63806,WMM2,1421944,false,false,1944,image-keyboard-response,6
true,17,1,1,2,false,d,false,false,0.0-2.0-0.67-0.606-3.606,0,1,0,90,false,stim,true,1,379,3,0,0,63806,WMM2,1423848,false,false,1947,image-keyboard-response,7
true,17,1,1,1,true,z,false,true,0.0-2.0-0.67-0.607-3.607,0,1,0,90,false,stim,false,1,540,3,1,1,63806,WMM2,1425928,false,false,1950,image-keyboard-response,8
true,17,2,1,0,false,q,false,false,0.0-2.0-0.67-0.608-3.608,0,1,0,68,false,stim,true,2,596,3,0,2,63806,WMM2,1428064,false,false,1953,image-keyboard-response,9
true,17,2,1,2,true,d,false,true,0.0-2.0-0.67-0.609-3.609,0,1,0,68,false,stim,false,1,548,3,0,0,63806,WMM2,1430136,false,false,1956,image-keyboard-response,10
true,17,1,1,0,false,q,true,false,0.0-2.0-0.67-0.610-3.610,0,1,0,90,false,stim,false,2,543,3,0,2,63806,WMM2,1432216,false,false,1959,image-keyboard-response,11
true,17,0,1,0,true,q,false,true,0.0-2.0-0.67-0.611-3.611,0,1,0,81,false,stim,false,2,500,3,0,2,63806,WMM2,1434248,false,false,1962,image-keyboard-response,12
true,17,0,1,0,true,q,false,true,0.0-2.0-0.68-0.612-3.612,0,1,0,81,false,stim,false,2,668,3,0,2,63806,WMM2,1436456,false,false,1965,image-keyboard-response,13
true,17,0,1,0,true,q,false,true,0.0-2.0-0.68-0.613-3.613,0,1,0,81,false,stim,false,2,579,3,0,2,63806,WMM2,1438568,false,false,1968,image-keyboard-response,14
true,17,2,1,2,true,d,false,true,0.0-2.0-0.68-0.614-3.614,0,1,0,68,false,stim,false,1,572,3,0,0,63806,WMM2,1440680,false,false,1971,image-keyboard-response,15
true,17,2,1,2,true,d,false,true,0.0-2.0-0.68-0.615-3.615,0,1,0,68,false,stim,false,1,459,3,0,0,63806,WMM2,1442656,false,false,1974,image-keyboard-response,16
true,17,1,1,1,true,z,false,false,0.0-2.0-0.68-0.616-3.616,0,1,0,90,false,stim,false,1,370,3,1,1,63806,WMM2,1444568,false,true,1977,image-keyboard-response,17
true,17,2,1,0,false,q,false,false,0.0-2.0-0.68-0.617-3.617,0,1,0,68,false,stim,true,2,572,3,0,2,63806,WMM2,1446680,false,false,1980,image-keyboard-response,18
true,17,2,1,1,false,z,true,false,0.0-2.0-0.68-0.618-3.618,0,1,0,68,false,stim,false,1,1121,3,1,1,63806,WMM2,1449329,false,false,1983,image-keyboard-response,19
true,17,0,1,1,false,z,true,false,0.0-2.0-0.68-0.619-3.619,0,1,0,81,false,stim,false,1,494,3,1,1,63806,WMM2,1451352,false,false,1986,image-keyboard-response,20
true,17,2,1,2,true,d,false,true,0.0-2.0-0.68-0.620-3.620,0,1,0,68,false,stim,false,1,811,3,0,0,63806,WMM2,1453720,false,false,1989,image-keyboard-response,21
true,17,2,1,2,true,d,false,true,0.0-2.0-0.69-0.621-3.621,0,1,0,68,false,stim,false,1,717,3,0,0,63806,WMM2,1455975,false,false,1992,image-keyboard-response,22
true,17,1,1,1,true,z,false,false,0.0-2.0-0.69-0.622-3.622,0,1,0,90,false,stim,false,1,754,3,1,1,63806,WMM2,1458272,false,true,1995,image-keyboard-response,23
true,17,1,1,1,true,z,false,true,0.0-2.0-0.69-0.623-3.623,0,1,0,90,false,stim,false,1,495,3,1,1,63806,WMM2,1460304,false,false,1998,image-keyboard-response,24
true,17,1,1,1,true,z,false,true,0.0-2.0-0.69-0.624-3.624,0,1,0,90,false,stim,false,1,504,3,1,1,63806,WMM2,1462392,false,false,2001,image-keyboard-response,25
true,17,0,1,0,true,q,false,true,0.0-2.0-0.69-0.625-3.625,0,1,0,81,false,stim,false,2,422,3,0,2,63806,WMM2,1464360,false,false,2004,image-keyboard-response,26
true,17,0,1,0,true,q,false,false,0.0-2.0-0.69-0.626-3.626,0,1,0,81,false,stim,false,2,439,3,0,2,63806,WMM2,1466328,false,true,2007,image-keyboard-response,27
true,17,0,1,0,true,q,false,true,0.0-2.0-0.69-0.627-3.627,0,1,0,81,false,stim,false,2,388,3,1,2,63806,WMM2,1468256,false,false,2010,image-keyboard-response,28
true,17,2,1,2,true,d,false,false,0.0-2.0-0.69-0.628-3.628,0,1,0,68,false,stim,false,1,595,3,1,0,63806,WMM2,1470383,false,true,2013,image-keyboard-response,29
true,17,2,1,2,true,d,false,true,0.0-2.0-0.69-0.629-3.629,0,1,0,68,false,stim,false,1,475,3,1,0,63806,WMM2,1472383,false,false,2016,image-keyboard-response,30
true,17,2,1,2,true,d,false,true,0.0-2.0-0.70-0.630-3.630,0,1,0,68,false,stim,false,1,404,3,1,0,63806,WMM2,1474312,false,false,2019,image-keyboard-response,31
true,17,1,1,1,true,z,false,false,0.0-2.0-0.70-0.631-3.631,0,1,0,90,false,stim,false,1,576,3,0,1,63806,WMM2,1476423,false,true,2022,image-keyboard-response,32
true,17,1,1,1,true,z,false,true,0.0-2.0-0.70-0.632-3.632,0,1,0,90,false,stim,false,1,387,3,0,1,63806,WMM2,1478335,false,false,2025,image-keyboard-response,33
true,17,2,1,2,true,d,false,true,0.0-2.0-0.70-0.633-3.633,0,1,0,68,false,stim,false,1,724,3,1,0,63806,WMM2,1480591,false,false,2028,image-keyboard-response,34
true,17,1,1,1,true,z,false,false,0.0-2.0-0.70-0.634-3.634,0,1,0,90,false,stim,false,1,1192,3,0,1,63806,WMM2,1483320,false,true,2031,image-keyboard-response,35
true,17,0,1,0,true,q,false,false,0.0-2.0-0.70-0.635-3.635,0,1,0,81,false,stim,false,2,582,3,1,2,63806,WMM2,1485440,false,true,2034,image-keyboard-response,36
true,17,2,1,2,true,d,false,true,0.0-2.0-0.70-0.636-3.636,0,1,0,68,false,stim,false,1,587,3,1,0,63806,WMM2,1487559,false,false,2037,image-keyboard-response,37
true,18,0,4,0,true,q,false,false,0.0-2.0-0.70-0.637-3.637,1,0,1,81,true,stim,false,0,430,3,1,2,63806,WMM2,1489528,false,true,2040,image-keyboard-response,1
true,18,0,4,0,true,q,false,true,0.0-2.0-0.70-0.638-3.638,1,0,1,81,false,stim,false,0,443,3,1,2,63806,WMM2,1491512,false,false,2043,image-keyboard-response,2
