answered,blockNum,choice,condition,corResp,correct,correct_response,explo,fb,internal_node_id,isStable_1,isStable_2,isStable_3,key_press,newBlock,part,persev,persevResp,rt,sessNum,stableAS,stimulus,subject,task,time_elapsed,training,trap,trial_index,trial_type,trialsInBlock
true,1,0,0,2,false,d,true,false,0.0-2.0-0.0-0.0-3.0,0,0,0,81,true,stim,false,-1,728,2,0,2,63806,WMM2,86569,false,false,106,image-keyboard-response,1
true,1,1,0,2,false,d,true,false,0.0-2.0-0.0-0.1-3.1,0,0,0,90,false,stim,false,-1,778,2,0,2,63806,WMM2,88879,false,false,109,image-keyboard-response,2
true,1,2,0,2,true,d,false,false,0.0-2.0-0.0-0.2-3.2,0,0,0,68,false,stim,false,-1,406,2,0,2,63806,WMM2,90815,false,true,112,image-keyboard-response,3
true,1,0,0,0,true,q,false,true,0.0-2.0-0.0-0.3-3.3,0,0,0,81,false,stim,false,-1,619,2,0,1,63806,WMM2,92968,false,false,115,image-keyboard-response,4
true,1,0,0,2,false,d,true,false,0.0-2.0-0.0-0.4-3.4,0,0,0,81,false,stim,false,-1,497,2,0,0,63806,WMM2,95008,false,false,118,image-keyboard-response,5
true,1,1,0,2,false,d,true,false,0.0-2.0-0.0-0.5-3.5,0,0,0,90,false,stim,false,-1,612,2,0,0,63806,WMM2,97143,false,false,121,image-keyboard-response,6
true,1,0,0,0,true,q,false,true,0.0-2.0-0.0-0.6-3.6,0,0,0,81,false,stim,false,-1,766,2,0,1,63806,WMM2,99440,false,false,124,image-keyboard-response,7
true,1,0,0,0,true,q,false,true,0.0-2.0-0.0-0.7-3.7,0,0,0,81,false,stim,false,-1,726,2,0,1,63806,WMM2,101696,false,false,127,image-keyboard-response,8
true,1,2,0,2,true,d,false,true,0.0-2.0-0.0-0.8-3.8,0,0,0,68,false,stim,false,-1,467,2,0,0,63806,WMM2,103687,false,false,130,image-keyboard-response,9
true,1,1,0,2,false,d,true,false,0.0-2.0-0.1-0.9-3.9,0,0,0,90,false,stim,false,-1,453,2,0,2,63806,WMM2,105673,false,false,133,image-keyboard-response,10
true,1,0,0,0,true,q,false,true,0.0-2.0-0.1-0.10-3.10,0,0,0,81,false,stim,false,-1,383,2,0,1,63806,WMM2,107583,false,false,136,image-keyboard-response,11
true,1,2,0,2,true,d,false,true,0.0-2.0-0.1-0.11-3.11,0,0,0,68,false,stim,false,-1,519,2,0,0,63806,WMM2,109640,false,false,139,image-keyboard-response,12
true,1,0,0,0,true,q,false,true,0.0-2.0-0.1-0.12-3.12,0,0,0,81,false,stim,false,-1,607,2,0,1,63806,WMM2,111783,false,false,142,image-keyboard-response,13
true,1,0,0,2,false,d,true,false,0.0-2.0-0.1-0.13-3.13,0,0,0,81,false,stim,false,-1,450,2,0,2,63806,WMM2,113759,false,false,145,image-keyboard-response,14
true,1,2,0,2,true,d,false,false,0.0-2.0-0.1-0.14-3.14,0,0,0,68,false,stim,false,-1,487,2,0,0,63806,WMM2,115776,false,true,148,image-keyboard-response,15
true,1,2,0,2,true,d,false,true,0.0-2.0-0.1-0.15-3.15,0,0,0,68,false,stim,false,-1,353,2,0,0,63806,WMM2,117663,false,false,151,image-keyboard-response,16
true,1,2,0,2,true,d,false,true,0.0-2.0-0.1-0.16-3.16,0,0,0,68,false,stim,false,-1,498,2,0,2,63806,WMM2,119688,false,false,154,image-keyboard-response,17
true,1,0,0,0,true,q,false,true,0.0-2.0-0.1-0.17-3.17,0,0,0,81,false,stim,false,-1,497,2,0,1,63806,WMM2,121712,false,false,157,image-keyboard-response,18
true,1,2,0,2,true,d,false,true,0.0-2.0-0.2-0.18-3.18,0,0,0,68,false,stim,false,-1,503,2,0,2,63806,WMM2,123743,false,false,160,image-keyboard-response,19
true,1,2,0,2,true,d,false,true,0.0-2.0-0.2-0.19-3.19,0,0,0,68,false,stim,false,-1,361,2,0,0,63806,WMM2,125640,false,false,163,image-keyboard-response,20
true,1,0,0,0,true,q,false,true,0.0-2.0-0.2-0.20-3.20,0,0,0,81,false,stim,false,-1,540,2,1,1,63806,WMM2,127719,false,false,166,image-keyboard-response,21
true,1,2,0,2,true,d,false,false,0.0-2.0-0.2-0.21-3.21,0,0,0,68,false,stim,false,-1,368,2,0,2,63806,WMM2,129607,false,true,169,image-keyboard-response,22
true,1,0,0,0,true,q,false,true,0.0-2.0-0.2-0.22-3.22,0,0,0,81,false,stim,false,-1,539,2,1,1,63806,WMM2,131679,false,false,172,image-keyboard-response,23
true,1,2,0,2,true,d,false,false,0.0-2.0-0.2-0.23-3.23,0,0,0,68,false,stim,false,-1,501,2,1,0,63806,WMM2,133711,false,true,175,image-keyboard-response,24
true,1,2,0,2,true,d,false,false,0.0-2.0-0.2-0.24-3.24,0,0,0,68,false,stim,false,-1,382,2,1,0,63806,WMM2,135631,false,true,178,image-keyboard-response,25
true,1,2,0,2,true,d,false,true,0.0-2.0-0.2-0.25-3.25,0,0,0,68,false,stim,false,-1,540,2,0,2,63806,WMM2,137680,false,false,181,image-keyboard-response,26
true,1,0,0,0,true,q,false,true,0.0-2.0-0.2-0.26-3.26,0,0,0,81,false,stim,false,-1,530,2,1,1,63806,WMM2,139730,false,false,184,image-keyboard-response,27
true,1,0,0,0,true,q,false,false,0.0-2.0-0.3-0.27-3.27,0,0,0,81,false,stim,false,-1,539,2,1,1,63806,WMM2,141801,false,true,187,image-keyboard-response,28
true,1,2,0,2,true,d,false,true,0.0-2.0-0.3-0.28-3.28,0,0,0,68,false,stim,false,-1,556,2,0,2,63806,WMM2,143896,false,false,190,image-keyboard-response,29
true,1,2,0,2,true,d,false,true,0.0-2.0-0.3-0.29-3.29,0,0,0,68,false,stim,false,-1,524,2,0,2,63806,WMM2,145944,false,false,193,image-keyboard-response,30
true,2,0,3,0,true,q,false,true,0.0-2.0-0.3-0.30-3.30,1,1,0,81,true,stim,false,0,697,2,1,1,63806,WMM2,148168,false,false,196,image-keyboard-response,1
true,2,1,3,2,false,d,true,true,0.0-2.0-0.3-0.31-3.31,1,1,0,90,false,stim,false,2,419,2,1,0,63806,WMM2,150104,false,true,199,image-keyboard-response,2
true,2,1,3,2,false,d,true,false,0.0-2.0-0.3-0.32-3.32,1,1,0,90,false,stim,false,2,491,2,1,0,63806,WMM2,152120,false,false,202,image-keyboard-response,3
true,2,1,3,2,false,d,true,false,0.0-2.0-0.3-0.33-3.33,1,1,0,90,false,stim,false,2,400,2,1,0,63806,WMM2,154050,false,false,205,image-keyboard-response,4
true,2,0,3,0,true,q,false,true,0.0-2.0-0.3-0.34-3.34,1,1,0,81,false,stim,false,0,406,2,1,1,63806,WMM2,155992,false,false,208,image-keyboard-response,5
true,2,2,3,0,false,q,false,false,0.0-2.0-0.3-0.35-3.35,1,1,0,68,false,stim,true,2,639,2,0,2,63806,WMM2,158160,false,false,211,image-keyboard-response,6
true,2,0,3,2,false,d,true,true,0.0-2.0-0.4-0.36-3.36,1,1,0,81,false,stim,false,2,355,2,1,0,63806,WMM2,160041,false,true,214,image-keyboard-response,7
true,2,2,3,0,false,q,false,false,0.0-2.0-0.4-0.37-3.37,1,1,0,68,false,stim,true,2,469,2,0,2,63806,WMM2,162040,false,false,217,image-keyboard-response,8
true,2,0,3,0,true,q,false,true,0.0-2.0-0.4-0.38-3.38,1,1,0,81,false,stim,false,0,617,2,1,1,63806,WMM2,164175,false,false,220,image-keyboard-response,9
true,2,0,3,0,true,q,false,true,0.0-2.0-0.4-0.39-3.39,1,1,0,81,false,stim,false,0,483,2,1,1,63806,WMM2,166183,false,false,223,image-keyboard-response,10
true,2,0,3,0,true,q,false,true,0.0-2.0-0.4-0.40-3.40,1,1,0,81,false,stim,false,0,488,2,1,1,63806,WMM2,168208,false,false,226,image-keyboard-response,11
true,2,1,3,2,false,d,true,false,0.0-2.0-0.4-0.41-3.41,1,1,0,90,false,stim,false,2,370,2,1,0,63806,WMM2,170120,false,false,229,image-keyboard-response,12
true,2,1,3,0,false,q,true,false,0.0-2.0-0.4-0.42-3.42,1,1,0,90,false,stim,false,2,360,2,0,2,63806,WMM2,171999,false,false,232,image-keyboard-response,13
true,2,0,3,2,false,d,true,false,0.0-2.0-0.4-0.43-3.43,1,1,0,81,false,stim,false,2,679,2,1,0,63806,WMM2,174208,false,false,235,image-keyboard-response,14
true,2,1,3,0,false,q,true,false,0.0-2.0-0.4-0.44-3.44,1,1,0,90,false,stim,false,2,620,2,0,2,63806,WMM2,176360,false,false,238,image-keyboard-response,15
true,2,0,3,0,true,q,false,true,0.0-2.0-0.5-0.45-3.45,1,1,0,81,false,stim,false,0,646,2,1,1,63806,WMM2,178530,false,false,241,image-keyboard-response,16
true,2,0,3,0,true,q,false,false,0.0-2.0-0.5-0.46-3.46,1,1,0,81,false,stim,false,0,524,2,1,1,63806,WMM2,180584,false,true,244,image-keyboard-response,17
true,2,1,3,0,false,q,true,false,0.0-2.0-0.5-0.47-3.47,1,1,0,90,false,stim,false,2,706,2,0,2,63806,WMM2,182816,false,false,247,image-keyboard-response,18
true,2,2,3,0,false,q,false,false,0.0-2.0-0.5-0.48-3.48,1,1,0,68,false,stim,true,2,650,2,0,2,63806,WMM2,185000,false,false,250,image-keyboard-response,19
true,2,1,3,2,false,d,true,false,0.0-2.0-0.5-0.49-3.49,1,1,0,90,false,stim,false,2,673,2,1,0,63806,WMM2,187200,false,false,253,image-keyboard-response,20
true,2,0,3,0,true,q,false,true,0.0-2.0-0.5-0.50-3.50,1,1,0,81,false,stim,false,0,382,2,1,1,63806,WMM2,189112,false,false,256,image-keyboard-response,21
true,2,2,3,2,true,d,false,true,0.0-2.0-0.5-0.51-3.51,1,1,0,68,false,stim,false,2,705,2,1,0,63806,WMM2,191351,false,false,259,image-keyboard-response,22
true,2,0,3,0,true,q,false,true,0.0-2.0-0.5-0.52-3.52,1,1,0,81,false,stim,false,2,408,2,0,2,63806,WMM2,193288,false,false,262,image-keyboard-response,23
true,2,2,3,2,true,d,false,true,0.0-2.0-0.5-0.53-3.53,1,1,0,68,false,stim,false,2,551,2,1,0,63806,WMM2,195367,false,false,265,image-keyboard-response,24
true,2,0,3,0,true,q,false,true,0.0-2.0-0.6-0.54-3.54,1,1,0,81,false,stim,false,0,543,2,1,1,63806,WMM2,197432,false,false,268,image-keyboard-response,25
true,2,2,3,2,true,d,false,true,0.0-2.0-0.6-0.55-3.55,1,1,0,68,false,stim,false,2,702,2,1,0,63806,WMM2,199671,false,false,271,image-keyboard-response,26
true,2,0,3,0,true,q,false,true,0.0-2.0-0.6-0.56-3.56,1,1,0,81,false,stim,false,0,374,2,1,1,63806,WMM2,201583,false,false,274,image-keyboard-response,27
true,2,2,3,2,true,d,false,true,0.0-2.0-0.6-0.57-3.57,1,1,0,68,false,stim,false,2,450,2,1,0,63806,WMM2,203560,false,false,277,image-keyboard-response,28
true,2,0,3,0,true,q,false,false,0.0-2.0-0.6-0.58-3.58,1,1,0,81,false,stim,false,2,494,2,0,2,63806,WMM2,205585,false,true,280,image-keyboard-response,29
true,2,2,3,2,true,d,false,true,0.0-2.0-0.6-0.59-3.59,1,1,0,68,false,stim,false,2,567,2,0,0,63806,WMM2,207687,false,false,283,image-keyboard-response,30
true,2,0,3,0,true,q,false,true,0.0-2.0-0.6-0.60-3.60,1,1,0,81,false,stim,false,0,356,2,1,1,63806,WMM2,209575,false,false,286,image-keyboard-response,31
true,2,0,3,0,true,q,false,true,0.0-2.0-0.6-0.61-3.61,1,1,0,81,false,stim,false,2,934,2,1,2,63806,WMM2,212024,false,false,289,image-keyboard-response,32
true,2,0,3,0,true,q,false,true,0.0-2.0-0.6-0.62-3.62,1,1,0,81,false,stim,false,2,474,2,1,2,63806,WMM2,214024,false,false,292,image-keyboard-response,33
true,2,2,3,2,true,d,false,true,0.0-2.0-0.7-0.63-3.63,1,1,0,68,false,stim,false,2,411,2,0,0,63806,WMM2,215959,false,false,295,image-keyboard-response,34
true,2,0,3,0,true,q,false,true,0.0-2.0-0.7-0.64-3.64,1,1,0,81,false,stim,false,2,510,2,1,2,63806,WMM2,218000,false,false,298,image-keyboard-response,35
true,2,0,3,0,true,q,false,true,0.0-2.0-0.7-0.65-3.65,1,1,0,81,false,stim,false,0,379,2,1,1,63806,WMM2,219919,false,false,301,image-keyboard-response,36
true,2,0,3,0,true,q,false,false,0.0-2.0-0.7-0.66-3.66,1,1,0,81,false,stim,false,0,419,2,1,1,63806,WMM2,221880,false,true,304,image-keyboard-response,37
true,2,2,3,2,true,d,false,false,0.0-2.0-0.7-0.67-3.67,1,1,0,68,false,stim,false,2,509,2,0,0,63806,WMM2,223928,false,true,307,image-keyboard-response,38
true,2,0,3,0,true,q,false,true,0.0-2.0-0.7-0.68-3.68,1,1,0,81,false,stim,false,0,491,2,1,1,63806,WMM2,225952,false,false,310,image-keyboard-response,39
true,3,0,4,0,true,q,false,true,0.0-2.0-0.7-0.69-3.69,0,1,1,81,true,stim,false,0,825,2,1,2,63806,WMM2,228304,false,false,313,image-keyboard-response,1
true,3,0,4,0,true,q,false,true,0.0-2.0-0.7-0.70-3.70,0,1,1,81,false,stim,false,0,529,2,1,2,63806,WMM2,230368,false,false,316,image-keyboard-response,2
true,3,2,4,2,true,d,false,true,0.0-2.0-0.7-0.71-3.71,0,1,1,68,false,stim,false,2,515,2,0,0,63806,WMM2,232414,false,false,319,image-keyboard-response,3
true,3,0,4,0,true,q,false,true,0.0-2.0-0.8-0.72-3.72,0,1,1,81,false,stim,false,0,508,2,1,1,63806,WMM2,234448,false,false,322,image-keyboard-response,4
true,3,2,4,2,true,d,false,true,0.0-2.0-0.8-0.73-3.73,0,1,1,68,false,stim,false,2,492,2,0,0,63806,WMM2,236472,false,false,325,image-keyboard-response,5
true,3,2,4,2,true,d,false,true,0.0-2.0-0.8-0.74-3.74,0,1,1,68,false,stim,false,2,558,2,0,0,63806,WMM2,238568,false,false,328,image-keyboard-response,6
true,3,2,4,2,true,d,false,true,0.0-2.0-0.8-0.75-3.75,0,1,1,68,false,stim,false,2,657,2,0,0,63806,WMM2,240768,false,false,331,image-keyboard-response,7
true,3,0,4,0,true,q,false,true,0.0-2.0-0.8-0.76-3.76,0,1,1,81,false,stim,false,0,458,2,1,2,63806,WMM2,242768,false,false,334,image-keyboard-response,8
true,3,0,4,0,true,q,false,true,0.0-2.0-0.8-0.77-3.77,0,1,1,81,false,stim,false,0,674,2,1,1,63806,WMM2,244984,false,false,337,image-keyboard-response,9
true,3,0,4,0,true,q,false,true,0.0-2.0-0.8-0.78-3.78,0,1,1,81,false,stim,false,0,689,2,1,2,63806,WMM2,247199,false,false,340,image-keyboard-response,10
true,3,0,4,0,true,q,false,true,0.0-2.0-0.8-0.79-3.79,0,1,1,81,false,stim,false,0,476,2,1,2,63806,WMM2,249216,false,false,343,image-keyboard-response,11
true,3,0,4,0,true,q,false,false,0.0-2.0-0.8-0.80-3.80,0,1,1,81,false,stim,false,0,402,2,1,1,63806,WMM2,251151,false,true,346,image-keyboard-response,12
true,3,2,4,2,true,d,false,true,0.0-2.0-0.9-0.81-3.81,0,1,1,68,false,stim,false,2,1063,2,0,0,63806,WMM2,253752,false,false,349,image-keyboard-response,13
true,3,2,4,2,true,d,false,true,0.0-2.0-0.9-0.82-3.82,0,1,1,68,false,stim,false,2,598,2,0,0,63806,WMM2,255887,false,false,352,image-keyboard-response,14
true,3,0,4,0,true,q,false,false,0.0-2.0-0.9-0.83-3.83,0,1,1,81,false,stim,false,0,418,2,1,1,63806,WMM2,257847,false,true,355,image-keyboard-response,15
true,3,2,4,2,true,d,false,true,0.0-2.0-0.9-0.84-3.84,0,1,1,68,false,stim,false,2,553,2,0,0,63806,WMM2,259944,false,false,358,image-keyboard-response,16
true,3,0,4,0,true,q,false,true,0.0-2.0-0.9-0.85-3.85,0,1,1,81,false,stim,false,0,571,2,1,2,63806,WMM2,262040,false,false,361,image-keyboard-response,17
true,3,0,4,0,true,q,false,false,0.0-2.0-0.9-0.86-3.86,0,1,1,81,false,stim,false,0,340,2,1,1,63806,WMM2,263920,false,true,364,image-keyboard-response,18
true,3,0,4,0,true,q,false,true,0.0-2.0-0.9-0.87-3.87,0,1,1,81,false,stim,false,0,523,2,1,2,63806,WMM2,265984,false,false,367,image-keyboard-response,19
true,3,1,4,0,false,q,true,true,0.0-2.0-0.9-0.88-3.88,0,1,1,90,false,stim,false,0,476,2,1,1,63806,WMM2,267992,false,true,370,image-keyboard-response,20
true,3,0,4,0,true,q,false,true,0.0-2.0-0.9-0.89-3.89,0,1,1,81,false,stim,false,0,572,2,1,2,63806,WMM2,270088,false,false,373,image-keyboard-response,21
true,3,1,4,0,false,q,true,false,0.0-2.0-0.10-0.90-3.90,0,1,1,90,false,stim,false,0,576,2,1,1,63806,WMM2,272192,false,false,376,image-keyboard-response,22
true,3,0,4,0,true,q,false,true,0.0-2.0-0.10-0.91-3.91,0,1,1,81,false,stim,false,0,653,2,1,2,63806,WMM2,274368,false,false,379,image-keyboard-response,23
true,3,2,4,2,true,d,false,true,0.0-2.0-0.10-0.92-3.92,0,1,1,68,false,stim,false,2,564,2,0,0,63806,WMM2,276464,false,false,382,image-keyboard-response,24
true,3,2,4,2,true,d,false,true,0.0-2.0-0.10-0.93-3.93,0,1,1,68,false,stim,false,2,482,2,0,0,63806,WMM2,278471,false,false,385,image-keyboard-response,25
true,3,0,4,0,true,q,false,true,0.0-2.0-0.10-0.94-3.94,0,1,1,81,false,stim,false,0,727,2,1,2,63806,WMM2,280736,false,false,388,image-keyboard-response,26
true,3,0,4,0,true,q,false,true,0.0-2.0-0.10-0.95-3.95,0,1,1,81,false,stim,false,0,514,2,1,2,63806,WMM2,282784,false,false,391,image-keyboard-response,27
true,3,2,4,2,true,d,false,false,0.0-2.0-0.10-0.96-3.96,0,1,1,68,false,stim,false,2,561,2,0,0,63806,WMM2,284872,false,true,394,image-keyboard-response,28
true,3,1,4,0,false,q,true,false,0.0-2.0-0.10-0.97-3.97,0,1,1,90,false,stim,false,0,647,2,1,1,63806,WMM2,287055,false,false,397,image-keyboard-response,29
true,3,1,4,0,false,q,true,false,0.0-2.0-0.10-0.98-3.98,0,1,1,90,false,stim,false,0,451,2,1,1,63806,WMM2,289040,false,false,400,image-keyboard-response,30
true,3,0,4,0,true,q,false,false,0.0-2.0-0.11-0.99-3.99,0,1,1,81,false,stim,false,0,954,2,1,2,63806,WMM2,291544,false,true,403,image-keyboard-response,31
true,3,2,4,2,true,d,false,true,0.0-2.0-0.11-0.100-3.100,0,1,1,68,false,stim,false,2,810,2,0,0,63806,WMM2,293880,false,false,406,image-keyboard-response,32
true,3,2,4,0,false,q,true,false,0.0-2.0-0.11-0.101-3.101,0,1,1,68,false,stim,false,0,486,2,1,1,63806,WMM2,295896,false,false,409,image-keyboard-response,33
true,3,2,4,2,true,d,false,true,0.0-2.0-0.11-0.102-3.102,0,1,1,68,false,stim,false,2,689,2,0,0,63806,WMM2,298120,false,false,412,image-keyboard-response,34
true,3,0,4,0,true,q,false,true,0.0-2.0-0.11-0.103-3.103,0,1,1,81,false,stim,false,0,391,2,1,1,63806,WMM2,300041,false,false,415,image-keyboard-response,35
true,3,2,4,2,true,d,false,true,0.0-2.0-0.11-0.104-3.104,0,1,1,68,false,stim,false,2,598,2,0,0,63806,WMM2,302168,false,false,418,image-keyboard-response,36
true,3,0,4,0,true,q,false,true,0.0-2.0-0.11-0.105-3.105,0,1,1,81,false,stim,false,0,586,2,1,1,63806,WMM2,304296,false,false,421,image-keyboard-response,37
true,3,2,4,0,false,q,true,false,0.0-2.0-0.11-0.106-3.106,0,1,1,68,false,stim,false,0,394,2,0,2,63806,WMM2,306224,false,false,424,image-keyboard-response,38
true,3,2,4,0,false,q,true,false,0.0-2.0-0.11-0.107-3.107,0,1,1,68,false,stim,false,0,667,2,0,2,63806,WMM2,308416,false,false,427,image-keyboard-response,39
true,3,2,4,2,true,d,false,true,0.0-2.0-0.12-0.108-3.108,0,1,1,68,false,stim,false,2,553,2,1,0,63806,WMM2,310504,false,false,430,image-keyboard-response,40
true,3,1,4,0,false,q,true,false,0.0-2.0-0.12-0.109-3.109,0,1,1,90,false,stim,false,0,378,2,0,2,63806,WMM2,312408,false,false,433,image-keyboard-response,41
true,3,2,4,2,true,d,false,true,0.0-2.0-0.12-0.110-3.110,0,1,1,68,false,stim,false,2,610,2,1,0,63806,WMM2,314560,false,false,436,image-keyboard-response,42
true,3,2,4,2,true,d,false,true,0.0-2.0-0.12-0.111-3.111,0,1,1,68,false,stim,false,2,790,2,1,0,63806,WMM2,316880,false,false,439,image-keyboard-response,43
true,3,0,4,0,true,q,false,false,0.0-2.0-0.12-0.112-3.112,0,1,1,81,false,stim,false,0,518,2,0,2,63806,WMM2,318928,false,true,442,image-keyboard-response,44
true,3,0,4,0,true,q,false,false,0.0-2.0-0.12-0.113-3.113,0,1,1,81,false,stim,false,0,594,2,1,1,63806,WMM2,321063,false,true,445,image-keyboard-response,45
true,3,0,4,0,true,q,false,true,0.0-2.0-0.12-0.114-3.114,0,1,1,81,false,stim,false,0,523,2,0,2,63806,WMM2,323112,false,false,448,image-keyboard-response,46
true,3,0,4,0,true,q,false,true,0.0-2.0-0.12-0.115-3.115,0,1,1,81,false,stim,false,0,381,2,1,1,63806,WMM2,325032,false,false,451,image-keyboard-response,47
true,4,0,3,0,true,q,false,false,0.0-2.0-0.12-0.116-3.116,1,1,0,81,true,stim,false,0,414,2,1,1,63806,WMM2,326983,false,true,454,image-keyboard-response,1
true,4,2,3,2,true,d,false,true,0.0-2.0-0.13-0.117-3.117,1,1,0,68,false,stim,false,2,549,2,1,0,63806,WMM2,329060,false,false,457,image-keyboard-response,2
true,4,2,3,2,true,d,false,true,0.0-2.0-0.13-0.118-3.118,1,1,0,68,false,stim,false,2,618,2,1,0,63806,WMM2,331208,false,false,460,image-keyboard-response,3
true,4,0,3,1,false,z,false,false,0.0-2.0-0.13-0.119-3.119,1,1,0,81,false,stim,true,0,690,2,0,2,63806,WMM2,333440,false,false,463,image-keyboard-response,4
true,4,0,3,0,true,q,false,true,0.0-2.0-0.13-0.120-3.120,1,1,0,81,false,stim,false,0,374,2,1,1,63806,WMM2,335343,false,false,466,image-keyboard-response,5
true,4,0,3,1,false,z,false,false,0.0-2.0-0.13-0.121-3.121,1,1,0,81,false,stim,true,0,498,2,0,2,63806,WMM2,337368,false,false,469,image-keyboard-response,6
true,4,0,3,0,true,q,false,true,0.0-2.0-0.13-0.122-3.122,1,1,0,81,false,stim,false,0,386,2,1,1,63806,WMM2,339296,false,false,472,image-keyboard-response,7
true,4,0,3,0,true,q,false,true,0.0-2.0-0.13-0.123-3.123,1,1,0,81,false,stim,false,0,514,2,1,1,63806,WMM2,341343,false,false,475,image-keyboard-response,8
true,4,2,3,2,true,d,false,true,0.0-2.0-0.13-0.124-3.124,1,1,0,68,false,stim,false,2,586,2,1,0,63806,WMM2,343456,false,false,478,image-keyboard-response,9
true,4,2,3,1,false,z,true,false,0.0-2.0-0.13-0.125-3.125,1,1,0,68,false,stim,false,0,330,2,0,2,63806,WMM2,345319,false,false,481,image-keyboard-response,10
true,4,1,3,1,true,z,false,true,0.0-2.0-0.14-0.126-3.126,1,1,0,90,false,stim,false,0,638,2,0,2,63806,WMM2,347488,false,false,484,image-keyboard-response,11
true,4,1,3,1,true,z,false,true,0.0-2.0-0.14-0.127-3.127,1,1,0,90,false,stim,false,0,378,2,0,2,63806,WMM2,349408,false,false,487,image-keyboard-response,12
true,4,0,3,0,true,q,false,true,0.0-2.0-0.14-0.128-3.128,1,1,0,81,false,stim,false,0,466,2,1,1,63806,WMM2,351415,false,false,490,image-keyboard-response,13
true,4,0,3,0,true,q,false,true,0.0-2.0-0.14-0.129-3.129,1,1,0,81,false,stim,false,0,394,2,1,1,63806,WMM2,353344,false,false,493,image-keyboard-response,14
true,4,2,3,2,true,d,false,true,0.0-2.0-0.14-0.130-3.130,1,1,0,68,false,stim,false,2,451,2,1,0,63806,WMM2,355320,false,false,496,image-keyboard-response,15
true,4,1,3,1,true,z,false,true,0.0-2.0-0.14-0.131-3.131,1,1,0,90,false,stim,false,0,566,2,0,2,63806,WMM2,357415,false,false,499,image-keyboard-response,16
true,4,0,3,0,true,q,false,true,0.0-2.0-0.14-0.132-3.132,1,1,0,81,false,stim,false,0,514,2,1,1,63806,WMM2,359463,false,false,502,image-keyboard-response,17
true,4,2,3,2,true,d,false,false,0.0-2.0-0.14-0.133-3.133,1,1,0,68,false,stim,false,2,602,2,1,0,63806,WMM2,361592,false,true,505,image-keyboard-response,18
true,4,2,3,2,true,d,false,true,0.0-2.0-0.14-0.134-3.134,1,1,0,68,false,stim,false,2,421,2,1,0,63806,WMM2,363552,false,false,508,image-keyboard-response,19
true,4,2,3,2,true,d,false,false,0.0-2.0-0.15-0.135-3.135,1,1,0,68,false,stim,false,2,349,2,1,0,63806,WMM2,365440,false,true,511,image-keyboard-response,20
true,4,2,3,2,true,d,false,true,0.0-2.0-0.15-0.136-3.136,1,1,0,68,false,stim,false,2,342,2,0,0,63806,WMM2,367312,false,false,514,image-keyboard-response,21
true,4,0,3,0,true,q,false,false,0.0-2.0-0.15-0.137-3.137,1,1,0,81,false,stim,false,0,589,2,0,1,63806,WMM2,369440,false,true,517,image-keyboard-response,22
true,4,0,3,0,true,q,false,true,0.0-2.0-0.15-0.138-3.138,1,1,0,81,false,stim,false,0,399,2,0,1,63806,WMM2,371367,false,false,520,image-keyboard-response,23
true,4,1,3,1,true,z,false,true,0.0-2.0-0.15-0.139-3.139,1,1,0,90,false,stim,false,0,450,2,1,2,63806,WMM2,373360,false,false,523,image-keyboard-response,24
true,4,1,3,1,true,z,false,true,0.0-2.0-0.15-0.140-3.140,1,1,0,90,false,stim,false,0,534,2,1,2,63806,WMM2,375424,false,false,526,image-keyboard-response,25
true,4,2,3,2,true,d,false,true,0.0-2.0-0.15-0.141-3.141,1,1,0,68,false,stim,false,2,571,2,0,0,63806,WMM2,377520,false,false,529,image-keyboard-response,26
true,4,0,3,0,true,q,false,true,0.0-2.0-0.15-0.142-3.142,1,1,0,81,false,stim,false,0,510,2,0,1,63806,WMM2,379559,false,false,532,image-keyboard-response,27
true,4,1,3,1,true,z,false,true,0.0-2.0-0.15-0.143-3.143,1,1,0,90,false,stim,false,0,375,2,1,2,63806,WMM2,381464,false,false,535,image-keyboard-response,28
true,4,1,3,1,true,z,false,false,0.0-2.0-0.16-0.144-3.144,1,1,0,90,false,stim,false,0,426,2,1,2,63806,WMM2,383416,false,true,538,image-keyboard-response,29
true,4,1,3,1,true,z,false,false,0.0-2.0-0.16-0.145-3.145,1,1,0,90,false,stim,false,0,418,2,1,2,63806,WMM2,385368,false,true,541,image-keyboard-response,30
true,5,2,1,1,false,z,true,false,0.0-2.0-0.16-0.146-3.146,0,0,1,68,true,stim,false,1,378,2,1,2,63806,WMM2,387287,false,false,544,image-keyboard-response,1
true,5,0,1,1,false,z,false,false,0.0-2.0-0.16-0.147-3.147,0,0,1,81,false,stim,true,0,658,2,0,1,63806,WMM2,389488,false,false,547,image-keyboard-response,2
true,5,2,1,0,false,q,false,true,0.0-2.0-0.16-0.148-3.148,0,0,1,68,false,stim,true,2,681,2,0,0,63806,WMM2,391712,false,true,550,image-keyboard-response,3
true,5,0,1,1,false,z,false,false,0.0-2.0-0.16-0.149-3.149,0,0,1,81,false,stim,true,0,710,2,0,1,63806,WMM2,393960,false,false,553,image-keyboard-response,4
true,5,1,1,1,true,z,false,true,0.0-2.0-0.16-0.150-3.150,0,0,1,90,false,stim,false,0,1037,2,0,1,63806,WMM2,396528,false,false,556,image-keyboard-response,5
true,5,2,1,0,false,q,false,false,0.0-2.0-0.16-0.151-3.151,0,0,1,68,false,stim,true,2,667,2,0,0,63806,WMM2,398736,false,false,559,image-keyboard-response,6
true,5,2,1,0,false,q,false,true,0.0-2.0-0.16-0.152-3.152,0,0,1,68,false,stim,true,2,346,2,0,0,63806,WMM2,400615,false,true,562,image-keyboard-response,7
true,5,1,1,1,true,z,false,false,0.0-2.0-0.17-0.153-3.153,0,0,1,90,false,stim,false,0,635,2,0,1,63806,WMM2,402784,false,true,565,image-keyboard-response,8
true,5,2,1,0,false,q,false,false,0.0-2.0-0.17-0.154-3.154,0,0,1,68,false,stim,true,2,618,2,0,0,63806,WMM2,404928,false,false,568,image-keyboard-response,9
true,5,0,1,1,false,z,true,false,0.0-2.0-0.17-0.155-3.155,0,0,1,81,false,stim,false,1,722,2,1,2,63806,WMM2,407192,false,false,571,image-keyboard-response,10
true,5,2,1,0,false,q,false,false,0.0-2.0-0.17-0.156-3.156,0,0,1,68,false,stim,true,2,862,2,0,0,63806,WMM2,409592,false,false,574,image-keyboard-response,11
true,5,0,1,1,false,z,true,false,0.0-2.0-0.17-0.157-3.157,0,0,1,81,false,stim,false,1,1302,2,1,2,63806,WMM2,412431,false,false,577,image-keyboard-response,12
true,5,2,1,1,false,z,true,false,0.0-2.0-0.17-0.158-3.158,0,0,1,68,false,stim,false,1,438,2,1,2,63806,WMM2,414408,false,false,580,image-keyboard-response,13
true,5,1,1,0,false,q,true,false,0.0-2.0-0.17-0.159-3.159,0,0,1,90,false,stim,false,2,890,2,0,0,63806,WMM2,416839,false,false,583,image-keyboard-response,14
true,5,1,1,1,true,z,false,true,0.0-2.0-0.17-0.160-3.160,0,0,1,90,false,stim,false,0,742,2,0,1,63806,WMM2,419112,false,false,586,image-keyboard-response,15
true,5,1,1,1,true,z,false,true,0.0-2.0-0.17-0.161-3.161,0,0,1,90,false,stim,false,0,678,2,0,1,63806,WMM2,421328,false,false,589,image-keyboard-response,16
true,5,1,1,1,true,z,false,true,0.0-2.0-0.18-0.162-3.162,0,0,1,90,false,stim,false,0,562,2,0,1,63806,WMM2,423431,false,false,592,image-keyboard-response,17
true,5,0,1,0,true,q,false,true,0.0-2.0-0.18-0.163-3.163,0,0,1,81,false,stim,false,2,574,2,0,0,63806,WMM2,425543,false,false,595,image-keyboard-response,18
true,5,1,1,1,true,z,false,true,0.0-2.0-0.18-0.164-3.164,0,0,1,90,false,stim,false,1,610,2,1,2,63806,WMM2,427680,false,false,598,image-keyboard-response,19
true,5,1,1,1,true,z,false,true,0.0-2.0-0.18-0.165-3.165,0,0,1,90,false,stim,false,0,399,2,0,1,63806,WMM2,429631,false,false,601,image-keyboard-response,20
true,5,1,1,1,true,z,false,true,0.0-2.0-0.18-0.166-3.166,0,0,1,90,false,stim,false,0,365,2,0,1,63806,WMM2,431536,false,false,604,image-keyboard-response,21
true,5,0,1,0,true,q,false,true,0.0-2.0-0.18-0.167-3.167,0,0,1,81,false,stim,false,2,658,2,0,0,63806,WMM2,433728,false,false,607,image-keyboard-response,22
true,5,1,1,1,true,z,false,true,0.0-2.0-0.18-0.168-3.168,0,0,1,90,false,stim,false,1,385,2,1,2,63806,WMM2,435656,false,false,610,image-keyboard-response,23
true,5,0,1,0,true,q,false,true,0.0-2.0-0.18-0.169-3.169,0,0,1,81,false,stim,false,2,545,2,1,0,63806,WMM2,437735,false,false,613,image-keyboard-response,24
true,5,1,1,1,true,z,false,true,0.0-2.0-0.18-0.170-3.170,0,0,1,90,false,stim,false,1,554,2,0,2,63806,WMM2,439823,false,false,616,image-keyboard-response,25
true,5,1,1,1,true,z,false,true,0.0-2.0-0.19-0.171-3.171,0,0,1,90,false,stim,false,1,602,2,0,2,63806,WMM2,441952,false,false,619,image-keyboard-response,26
true,5,1,1,1,true,z,false,true,0.0-2.0-0.19-0.172-3.172,0,0,1,90,false,stim,false,1,350,2,0,2,63806,WMM2,443839,false,false,622,image-keyboard-response,27
true,5,1,1,1,true,z,false,false,0.0-2.0-0.19-0.173-3.173,0,0,1,90,false,stim,false,0,454,2,1,1,63806,WMM2,445824,false,true,625,image-keyboard-response,28
true,5,0,1,0,true,q,false,true,0.0-2.0-0.19-0.174-3.174,0,0,1,81,false,stim,false,2,658,2,1,0,63806,WMM2,448007,false,false,628,image-keyboard-response,29
true,5,0,1,0,true,q,false,true,0.0-2.0-0.19-0.175-3.175,0,0,1,81,false,stim,false,2,627,2,1,0,63806,WMM2,450175,false,false,631,image-keyboard-response,30
true,5,1,1,1,true,z,false,true,0.0-2.0-0.19-0.176-3.176,0,0,1,90,false,stim,false,1,371,2,0,2,63806,WMM2,452079,false,false,634,image-keyboard-response,31
true,5,1,1,1,true,z,false,true,0.0-2.0-0.19-0.177-3.177,0,0,1,90,false,stim,false,0,334,2,1,1,63806,WMM2,453943,false,false,637,image-keyboard-response,32
true,5,0,1,0,true,q,false,true,0.0-2.0-0.19-0.178-3.178,0,0,1,81,false,stim,false,2,522,2,1,0,63806,WMM2,455991,false,false,640,image-keyboard-response,33
true,6,1,4,1,true,z,false,true,0.0-2.0-0.19-0.179-3.179,1,1,0,90,true,stim,false,1,550,2,1,1,63806,WMM2,458080,false,false,643,image-keyboard-response,1
true,6,0,4,0,true,q,false,true,0.0-2.0-0.20-0.180-3.180,1,1,0,81,false,stim,false,0,534,2,1,0,63806,WMM2,460144,false,false,646,image-keyboard-response,2
true,6,1,4,1,true,z,false,true,0.0-2.0-0.20-0.181-3.181,1,1,0,90,false,stim,false,1,378,2,0,2,63806,WMM2,462047,false,false,649,image-keyboard-response,3
true,6,1,4,0,false,q,true,false,0.0-2.0-0.20-0.182-3.182,1,1,0,90,false,stim,false,0,451,2,1,0,63806,WMM2,464039,false,false,652,image-keyboard-response,4
true,6,1,4,1,true,z,false,true,0.0-2.0-0.20-0.183-3.183,1,1,0,90,false,stim,false,1,566,2,0,2,63806,WMM2,466136,false,false,655,image-keyboard-response,5
true,6,1,4,1,true,z,false,true,0.0-2.0-0.20-0.184-3.184,1,1,0,90,false,stim,false,1,427,2,1,1,63806,WMM2,468096,false,false,658,image-keyboard-response,6
true,6,1,4,1,true,z,false,true,0.0-2.0-0.20-0.185-3.185,1,1,0,90,false,stim,false,1,618,2,1,1,63806,WMM2,470247,false,false,661,image-keyboard-response,7
true,6,1,4,1,true,z,false,true,0.0-2.0-0.20-0.186-3.186,1,1,0,90,false,stim,false,1,546,2,0,2,63806,WMM2,472335,false,false,664,image-keyboard-response,8
true,6,0,4,0,true,q,false,true,0.0-2.0-0.20-0.187-3.187,1,1,0,81,false,stim,false,0,522,2,1,0,63806,WMM2,474392,false,false,667,image-keyboard-response,9
true,6,1,4,1,true,z,false,true,0.0-2.0-0.20-0.188-3.188,1,1,0,90,false,stim,false,1,662,2,1,1,63806,WMM2,476592,false,false,670,image-keyboard-response,10
true,6,1,4,1,true,z,false,true,0.0-2.0-0.21-0.189-3.189,1,1,0,90,false,stim,false,1,462,2,0,2,63806,WMM2,478591,false,false,673,image-keyboard-response,11
true,6,1,4,1,true,z,false,true,0.0-2.0-0.21-0.190-3.190,1,1,0,90,false,stim,false,1,702,2,0,2,63806,WMM2,480831,false,false,676,image-keyboard-response,12
true,6,1,4,1,true,z,false,true,0.0-2.0-0.21-0.191-3.191,1,1,0,90,false,stim,false,1,558,2,1,1,63806,WMM2,482927,false,false,679,image-keyboard-response,13
true,6,1,4,1,true,z,false,true,0.0-2.0-0.21-0.192-3.192,1,1,0,90,false,stim,false,1,658,2,0,2,63806,WMM2,485127,false,false,682,image-keyboard-response,14
true,6,0,4,0,true,q,false,true,0.0-2.0-0.21-0.193-3.193,1,1,0,81,false,stim,false,0,569,2,1,0,63806,WMM2,487239,false,false,685,image-keyboard-response,15
true,6,0,4,0,true,q,false,true,0.0-2.0-0.21-0.194-3.194,1,1,0,81,false,stim,false,0,565,2,1,0,63806,WMM2,489335,false,false,688,image-keyboard-response,16
true,6,1,4,1,true,z,false,false,0.0-2.0-0.21-0.195-3.195,1,1,0,90,false,stim,false,1,603,2,1,1,63806,WMM2,491463,false,true,691,image-keyboard-response,17
true,6,1,4,1,true,z,false,true,0.0-2.0-0.21-0.196-3.196,1,1,0,90,false,stim,false,1,488,2,1,1,63806,WMM2,493487,false,false,694,image-keyboard-response,18
true,6,0,4,0,true,q,false,true,0.0-2.0-0.21-0.197-3.197,1,1,0,81,false,stim,false,0,580,2,1,0,63806,WMM2,495599,false,false,697,image-keyboard-response,19
true,6,1,4,1,true,z,false,true,0.0-2.0-0.22-0.198-3.198,1,1,0,90,false,stim,false,1,484,2,0,2,63806,WMM2,497624,false,false,700,image-keyboard-response,20
true,6,1,4,1,true,z,false,true,0.0-2.0-0.22-0.199-3.199,1,1,0,90,false,stim,false,1,613,2,1,1,63806,WMM2,499783,false,false,703,image-keyboard-response,21
true,6,1,4,1,true,z,false,true,0.0-2.0-0.22-0.200-3.200,1,1,0,90,false,stim,false,1,544,2,1,1,63806,WMM2,501863,false,false,706,image-keyboard-response,22
true,6,1,4,1,true,z,false,true,0.0-2.0-0.22-0.201-3.201,1,1,0,90,false,stim,false,1,875,2,0,2,63806,WMM2,504264,false,false,709,image-keyboard-response,23
true,6,1,4,1,true,z,false,true,0.0-2.0-0.22-0.202-3.202,1,1,0,90,false,stim,false,1,466,2,1,1,63806,WMM2,506256,false,false,712,image-keyboard-response,24
true,6,0,4,0,true,q,false,true,0.0-2.0-0.22-0.203-3.203,1,1,0,81,false,stim,false,0,578,2,1,0,63806,WMM2,508367,false,false,715,image-keyboard-response,25
true,6,0,4,0,true,q,false,true,0.0-2.0-0.22-0.204-3.204,1,1,0,81,false,stim,false,0,402,2,1,0,63806,WMM2,510312,false,false,718,image-keyboard-response,26
true,6,0,4,0,true,q,false,false,0.0-2.0-0.22-0.205-3.205,1,1,0,81,false,stim,false,0,422,2,1,0,63806,WMM2,512271,false,true,721,image-keyboard-response,27
true,6,1,4,1,true,z,false,true,0.0-2.0-0.22-0.206-3.206,1,1,0,90,false,stim,false,1,598,2,0,2,63806,WMM2,514408,false,false,724,image-keyboard-response,28
true,6,1,4,1,true,z,false,true,0.0-2.0-0.23-0.207-3.207,1,1,0,90,false,stim,false,1,601,2,1,1,63806,WMM2,516552,false,false,727,image-keyboard-response,29
true,6,1,4,1,true,z,false,true,0.0-2.0-0.23-0.208-3.208,1,1,0,90,false,stim,false,1,1072,2,0,2,63806,WMM2,519151,false,false,730,image-keyboard-response,30
true,7,1,2,1,true,z,false,true,0.0-2.0-0.23-0.209-3.209,1,1,0,90,true,stim,false,1,472,2,1,1,63806,WMM2,521152,false,false,733,image-keyboard-response,1
true,7,1,2,2,false,d,false,false,0.0-2.0-0.23-0.210-3.210,1,1,0,90,false,stim,true,1,460,2,0,2,63806,WMM2,523140,false,false,736,image-keyboard-response,2
true,7,1,2,2,false,d,false,false,0.0-2.0-0.23-0.211-3.211,1,1,0,90,false,stim,true,1,435,2,0,2,63806,WMM2,525104,false,false,739,image-keyboard-response,3
true,7,0,2,0,true,q,false,true,0.0-2.0-0.23-0.212-3.212,1,1,0,81,false,stim,false,0,618,2,1,0,63806,WMM2,527248,false,false,742,image-keyboard-response,4
true,7,0,2,0,true,q,false,true,0.0-2.0-0.23-0.213-3.213,1,1,0,81,false,stim,false,0,585,2,1,0,63806,WMM2,529375,false,false,745,image-keyboard-response,5
true,7,1,2,1,true,z,false,true,0.0-2.0-0.23-0.214-3.214,1,1,0,90,false,stim,false,1,673,2,1,1,63806,WMM2,531583,false,false,748,image-keyboard-response,6
true,7,0,2,0,true,q,false,true,0.0-2.0-0.23-0.215-3.215,1,1,0,81,false,stim,false,0,666,2,1,0,63806,WMM2,533776,false,false,751,image-keyboard-response,7
true,7,1,2,1,true,z,false,true,0.0-2.0-0.24-0.216-3.216,1,1,0,90,false,stim,false,1,753,2,1,1,63806,WMM2,536063,false,false,754,image-keyboard-response,8
true,7,1,2,1,true,z,false,true,0.0-2.0-0.24-0.217-3.217,1,1,0,90,false,stim,false,1,537,2,1,1,63806,WMM2,538127,false,false,757,image-keyboard-response,9
true,7,0,2,0,true,q,false,true,0.0-2.0-0.24-0.218-3.218,1,1,0,81,false,stim,false,0,587,2,1,0,63806,WMM2,540247,false,false,760,image-keyboard-response,10
true,7,2,2,2,true,d,false,true,0.0-2.0-0.24-0.219-3.219,1,1,0,68,false,stim,false,1,491,2,0,2,63806,WMM2,542271,false,false,763,image-keyboard-response,11
true,7,2,2,2,true,d,false,true,0.0-2.0-0.24-0.220-3.220,1,1,0,68,false,stim,false,1,377,2,0,2,63806,WMM2,544175,false,false,766,image-keyboard-response,12
true,7,0,2,0,true,q,false,true,0.0-2.0-0.24-0.221-3.221,1,1,0,81,false,stim,false,0,668,2,1,0,63806,WMM2,546367,false,false,769,image-keyboard-response,13
true,7,2,2,2,true,d,false,true,0.0-2.0-0.24-0.222-3.222,1,1,0,68,false,stim,false,1,620,2,0,2,63806,WMM2,548520,false,false,772,image-keyboard-response,14
true,7,1,2,1,true,z,false,true,0.0-2.0-0.24-0.223-3.223,1,1,0,90,false,stim,false,1,491,2,1,1,63806,WMM2,550551,false,false,775,image-keyboard-response,15
true,7,0,2,0,true,q,false,true,0.0-2.0-0.24-0.224-3.224,1,1,0,81,false,stim,false,0,464,2,1,0,63806,WMM2,552544,false,false,778,image-keyboard-response,16
true,7,1,2,1,true,z,false,true,0.0-2.0-0.25-0.225-3.225,1,1,0,90,false,stim,false,1,495,2,1,1,63806,WMM2,554576,false,false,781,image-keyboard-response,17
true,7,2,2,2,true,d,false,false,0.0-2.0-0.25-0.226-3.226,1,1,0,68,false,stim,false,1,427,2,0,2,63806,WMM2,556527,false,true,784,image-keyboard-response,18
true,7,1,2,1,true,z,false,true,0.0-2.0-0.25-0.227-3.227,1,1,0,90,false,stim,false,1,507,2,1,1,63806,WMM2,558568,false,false,787,image-keyboard-response,19
true,7,2,2,2,true,d,false,true,0.0-2.0-0.25-0.228-3.228,1,1,0,68,false,stim,false,1,372,2,0,2,63806,WMM2,560471,false,false,790,image-keyboard-response,20
true,7,0,2,0,true,q,false,true,0.0-2.0-0.25-0.229-3.229,1,1,0,81,false,stim,false,0,568,2,1,0,63806,WMM2,562567,false,false,793,image-keyboard-response,21
true,7,2,2,2,true,d,false,true,0.0-2.0-0.25-0.230-3.230,1,1,0,68,false,stim,false,1,524,2,0,2,63806,WMM2,564623,false,false,796,image-keyboard-response,22
true,7,0,2,0,true,q,false,true,0.0-2.0-0.25-0.231-3.231,1,1,0,81,false,stim,false,0,786,2,1,0,63806,WMM2,566935,false,false,799,image-keyboard-response,23
true,7,0,2,0,true,q,false,true,0.0-2.0-0.25-0.232-3.232,1,1,0,81,false,stim,false,0,449,2,1,0,63806,WMM2,568919,false,false,802,image-keyboard-response,24
true,7,1,2,1,true,z,false,true,0.0-2.0-0.25-0.233-3.233,1,1,0,90,false,stim,false,1,365,2,1,1,63806,WMM2,570815,false,false,805,image-keyboard-response,25
true,7,1,2,1,true,z,false,false,0.0-2.0-0.26-0.234-3.234,1,1,0,90,false,stim,false,1,417,2,1,1,63806,WMM2,572767,false,true,808,image-keyboard-response,26
true,7,0,2,0,true,q,false,true,0.0-2.0-0.26-0.235-3.235,1,1,0,81,false,stim,false,0,502,2,1,0,63806,WMM2,574807,false,false,811,image-keyboard-response,27
true,7,1,2,1,true,z,false,true,0.0-2.0-0.26-0.236-3.236,1,1,0,90,false,stim,false,1,362,2,1,1,63806,WMM2,576711,false,false,814,image-keyboard-response,28
true,7,0,2,0,true,q,false,true,0.0-2.0-0.26-0.237-3.237,1,1,0,81,false,stim,false,0,445,2,1,0,63806,WMM2,578696,false,false,817,image-keyboard-response,29
true,7,2,2,2,true,d,false,true,0.0-2.0-0.26-0.238-3.238,1,1,0,68,false,stim,false,1,547,2,0,2,63806,WMM2,580775,false,false,820,image-keyboard-response,30
true,8,2,4,2,true,d,false,true,0.0-2.0-0.26-0.239-3.239,1,1,0,68,true,stim,false,2,455,2,0,2,63806,WMM2,582759,false,false,823,image-keyboard-response,1
true,8,2,4,2,true,d,false,false,0.0-2.0-0.26-0.240-3.240,1,1,0,68,false,stim,false,2,486,2,0,2,63806,WMM2,584775,false,true,826,image-keyboard-response,2
true,8,1,4,1,true,z,false,true,0.0-2.0-0.26-0.241-3.241,1,1,0,90,false,stim,false,1,483,2,1,1,63806,WMM2,586783,false,false,829,image-keyboard-response,3
true,8,0,4,0,true,q,false,true,0.0-2.0-0.26-0.242-3.242,1,1,0,81,false,stim,false,0,456,2,1,0,63806,WMM2,588775,false,false,832,image-keyboard-response,4
true,8,0,4,0,true,q,false,false,0.0-2.0-0.27-0.243-3.243,1,1,0,81,false,stim,false,0,404,2,1,0,63806,WMM2,590704,false,true,835,image-keyboard-response,5
true,8,1,4,1,true,z,false,false,0.0-2.0-0.27-0.244-3.244,1,1,0,90,false,stim,false,1,488,2,1,1,63806,WMM2,592728,false,true,838,image-keyboard-response,6
true,8,1,4,1,true,z,false,false,0.0-2.0-0.27-0.245-3.245,1,1,0,90,false,stim,false,1,476,2,1,1,63806,WMM2,594735,false,true,841,image-keyboard-response,7
true,8,0,4,1,false,z,true,false,0.0-2.0-0.27-0.246-3.246,1,1,0,81,false,stim,false,1,555,2,1,1,63806,WMM2,596815,false,false,844,image-keyboard-response,8
true,8,1,4,0,false,q,true,true,0.0-2.0-0.27-0.247-3.247,1,1,0,90,false,stim,false,0,973,2,1,0,63806,WMM2,599312,false,true,847,image-keyboard-response,9
true,8,1,4,0,false,q,true,true,0.0-2.0-0.27-0.248-3.248,1,1,0,90,false,stim,false,0,579,2,1,0,63806,WMM2,601419,false,true,850,image-keyboard-response,10
true,8,2,4,2,true,d,false,true,0.0-2.0-0.27-0.249-3.249,1,1,0,68,false,stim,false,2,592,2,0,2,63806,WMM2,603535,false,false,853,image-keyboard-response,11
true,8,2,4,2,true,d,false,true,0.0-2.0-0.27-0.250-3.250,1,1,0,68,false,stim,false,2,499,2,0,2,63806,WMM2,605559,false,false,856,image-keyboard-response,12
true,8,1,4,2,false,d,true,false,0.0-2.0-0.27-0.251-3.251,1,1,0,90,false,stim,false,2,571,2,0,2,63806,WMM2,607671,false,false,859,image-keyboard-response,13
true,8,2,4,1,false,z,true,false,0.0-2.0-0.28-0.252-3.252,1,1,0,68,false,stim,false,1,441,2,1,1,63806,WMM2,609639,false,false,862,image-keyboard-response,14
true,8,0,4,1,false,z,true,false,0.0-2.0-0.28-0.253-3.253,1,1,0,81,false,stim,false,1,443,2,1,1,63806,WMM2,611623,false,false,865,image-keyboard-response,15
true,8,1,4,0,false,q,true,false,0.0-2.0-0.28-0.254-3.254,1,1,0,90,false,stim,false,0,680,2,1,0,63806,WMM2,613840,false,false,868,image-keyboard-response,16
true,8,2,4,2,true,d,false,true,0.0-2.0-0.28-0.255-3.255,1,1,0,68,false,stim,false,2,652,2,0,2,63806,WMM2,616031,false,false,871,image-keyboard-response,17
true,8,1,4,0,false,q,true,false,0.0-2.0-0.28-0.256-3.256,1,1,0,90,false,stim,false,0,559,2,1,0,63806,WMM2,618119,false,false,874,image-keyboard-response,18
true,8,2,4,1,false,z,true,false,0.0-2.0-0.28-0.257-3.257,1,1,0,68,false,stim,false,1,1163,2,1,1,63806,WMM2,620823,false,false,877,image-keyboard-response,19
true,8,2,4,2,true,d,false,true,0.0-2.0-0.28-0.258-3.258,1,1,0,68,false,stim,false,2,647,2,0,2,63806,WMM2,623007,false,false,880,image-keyboard-response,20
true,8,2,4,2,true,d,false,true,0.0-2.0-0.28-0.259-3.259,1,1,0,68,false,stim,false,2,546,2,0,2,63806,WMM2,625095,false,false,883,image-keyboard-response,21
true,8,2,4,0,false,q,true,false,0.0-2.0-0.28-0.260-3.260,1,1,0,68,false,stim,false,0,442,2,1,0,63806,WMM2,627071,false,false,886,image-keyboard-response,22
true,8,2,4,2,true,d,false,true,0.0-2.0-0.29-0.261-3.261,1,1,0,68,false,stim,false,2,577,2,0,2,63806,WMM2,629183,false,false,889,image-keyboard-response,23
true,8,0,4,1,false,z,true,false,0.0-2.0-0.29-0.262-3.262,1,1,0,81,false,stim,false,1,511,2,1,1,63806,WMM2,631215,false,false,892,image-keyboard-response,24
true,8,0,4,0,true,q,false,true,0.0-2.0-0.29-0.263-3.263,1,1,0,81,false,stim,false,0,754,2,1,0,63806,WMM2,633503,false,false,895,image-keyboard-response,25
true,8,0,4,1,false,z,true,false,0.0-2.0-0.29-0.264-3.264,1,1,0,81,false,stim,false,1,381,2,1,1,63806,WMM2,635431,false,false,898,image-keyboard-response,26
true,8,0,4,0,true,q,false,true,0.0-2.0-0.29-0.265-3.265,1,1,0,81,false,stim,false,0,734,2,1,0,63806,WMM2,637736,false,false,901,image-keyboard-response,27
true,8,1,4,2,false,d,true,false,0.0-2.0-0.29-0.266-3.266,1,1,0,90,false,stim,false,2,449,2,0,2,63806,WMM2,639720,false,false,904,image-keyboard-response,28
true,8,1,4,1,true,z,false,true,0.0-2.0-0.29-0.267-3.267,1,1,0,90,false,stim,false,1,748,2,1,1,63806,WMM2,642007,false,false,907,image-keyboard-response,29
true,8,0,4,0,true,q,false,true,0.0-2.0-0.29-0.268-3.268,1,1,0,81,false,stim,false,0,484,2,1,0,63806,WMM2,644023,false,false,910,image-keyboard-response,30
true,8,2,4,2,true,d,false,true,0.0-2.0-0.29-0.269-3.269,1,1,0,68,false,stim,false,2,799,2,0,2,63806,WMM2,646360,false,false,913,image-keyboard-response,31
true,8,1,4,1,true,z,false,true,0.0-2.0-0.30-0.270-3.270,1,1,0,90,false,stim,false,1,406,2,1,1,63806,WMM2,648294,false,false,916,image-keyboard-response,32
true,8,2,4,2,true,d,false,true,0.0-2.0-0.30-0.271-3.271,1,1,0,68,false,stim,false,2,564,2,0,2,63806,WMM2,650382,false,false,919,image-keyboard-response,33
true,8,1,4,1,true,z,false,true,0.0-2.0-0.30-0.272-3.272,1,1,0,90,false,stim,false,1,361,2,0,1,63806,WMM2,652279,false,false,922,image-keyboard-response,34
true,8,2,4,2,true,d,false,true,0.0-2.0-0.30-0.273-3.273,1,1,0,68,false,stim,false,2,595,2,1,2,63806,WMM2,654400,false,false,925,image-keyboard-response,35
true,8,0,4,0,true,q,false,false,0.0-2.0-0.30-0.274-3.274,1,1,0,81,false,stim,false,0,702,2,0,0,63806,WMM2,656631,false,true,928,image-keyboard-response,36
true,8,0,4,0,true,q,false,true,0.0-2.0-0.30-0.275-3.275,1,1,0,81,false,stim,false,0,390,2,0,0,63806,WMM2,658559,false,false,931,image-keyboard-response,37
true,8,0,4,0,true,q,false,true,0.0-2.0-0.30-0.276-3.276,1,1,0,81,false,stim,false,0,406,2,0,0,63806,WMM2,660495,false,false,934,image-keyboard-response,38
true,8,1,4,1,true,z,false,true,0.0-2.0-0.30-0.277-3.277,1,1,0,90,false,stim,false,1,642,2,0,1,63806,WMM2,662671,false,false,937,image-keyboard-response,39
true,8,2,4,2,true,d,false,true,0.0-2.0-0.30-0.278-3.278,1,1,0,68,false,stim,false,2,511,2,1,2,63806,WMM2,664711,false,false,940,image-keyboard-response,40
true,8,1,4,1,true,z,false,true,0.0-2.0-0.31-0.279-3.279,1,1,0,90,false,stim,false,1,712,2,0,1,63806,WMM2,666951,false,false,943,image-keyboard-response,41
true,8,2,4,2,true,d,false,true,0.0-2.0-0.31-0.280-3.280,1,1,0,68,false,stim,false,2,448,2,1,2,63806,WMM2,668927,false,false,946,image-keyboard-response,42
true,8,0,4,0,true,q,false,true,0.0-2.0-0.31-0.281-3.281,1,1,0,81,false,stim,false,0,1045,2,0,0,63806,WMM2,671495,false,false,949,image-keyboard-response,43
true,9,1,1,0,false,q,false,false,0.0-2.0-0.31-0.282-3.282,0,0,1,90,true,stim,true,1,395,2,0,1,63806,WMM2,673415,false,false,952,image-keyboard-response,1
true,9,1,1,0,false,q,false,false,0.0-2.0-0.31-0.283-3.283,0,0,1,90,false,stim,true,1,427,2,0,1,63806,WMM2,675367,false,false,955,image-keyboard-response,2
true,9,0,1,1,false,z,false,false,0.0-2.0-0.31-0.284-3.284,0,0,1,81,false,stim,true,0,491,2,0,0,63806,WMM2,677391,false,false,958,image-keyboard-response,3
true,9,0,1,1,false,z,false,true,0.0-2.0-0.31-0.285-3.285,0,0,1,81,false,stim,true,0,376,2,0,0,63806,WMM2,679295,false,true,961,image-keyboard-response,4
true,9,2,1,2,true,d,false,true,0.0-2.0-0.31-0.286-3.286,0,0,1,68,false,stim,false,2,579,2,1,2,63806,WMM2,681383,false,false,964,image-keyboard-response,5
true,9,2,1,2,true,d,false,true,0.0-2.0-0.31-0.287-3.287,0,0,1,68,false,stim,false,2,593,2,1,2,63806,WMM2,683511,false,false,967,image-keyboard-response,6
true,9,2,1,2,true,d,false,true,0.0-2.0-0.32-0.288-3.288,0,0,1,68,false,stim,false,2,526,2,1,2,63806,WMM2,685575,false,false,970,image-keyboard-response,7
true,9,2,1,2,true,d,false,true,0.0-2.0-0.32-0.289-3.289,0,0,1,68,false,stim,false,2,458,2,1,2,63806,WMM2,687567,false,false,973,image-keyboard-response,8
true,9,1,1,0,false,q,false,false,0.0-2.0-0.32-0.290-3.290,0,0,1,90,false,stim,true,1,449,2,0,1,63806,WMM2,689560,false,false,976,image-keyboard-response,9
true,9,0,1,1,false,z,false,false,0.0-2.0-0.32-0.291-3.291,0,0,1,81,false,stim,true,0,511,2,0,0,63806,WMM2,691599,false,false,979,image-keyboard-response,10
true,9,0,1,0,true,q,false,true,0.0-2.0-0.32-0.292-3.292,0,0,1,81,false,stim,false,1,574,2,0,1,63806,WMM2,693703,false,false,982,image-keyboard-response,11
true,9,0,1,1,false,z,false,false,0.0-2.0-0.32-0.293-3.293,0,0,1,81,false,stim,true,0,378,2,0,0,63806,WMM2,695607,false,false,985,image-keyboard-response,12
true,9,0,1,0,true,q,false,true,0.0-2.0-0.32-0.294-3.294,0,0,1,81,false,stim,false,1,451,2,0,1,63806,WMM2,697599,false,false,988,image-keyboard-response,13
true,9,2,1,2,true,d,false,true,0.0-2.0-0.32-0.295-3.295,0,0,1,68,false,stim,false,2,477,2,1,2,63806,WMM2,699607,false,false,991,image-keyboard-response,14
true,9,1,1,1,true,z,false,true,0.0-2.0-0.32-0.296-3.296,0,0,1,90,false,stim,false,0,626,2,0,0,63806,WMM2,701776,false,false,994,image-keyboard-response,15
true,9,1,1,1,true,z,false,true,0.0-2.0-0.33-0.297-3.297,0,0,1,90,false,stim,false,0,456,2,0,0,63806,WMM2,703759,false,false,997,image-keyboard-response,16
true,9,0,1,0,true,q,false,true,0.0-2.0-0.33-0.298-3.298,0,0,1,81,false,stim,false,1,429,2,0,1,63806,WMM2,705719,false,false,1000,image-keyboard-response,17
true,9,1,1,1,true,z,false,true,0.0-2.0-0.33-0.299-3.299,0,0,1,90,false,stim,false,0,625,2,0,0,63806,WMM2,707894,false,false,1003,image-keyboard-response,18
true,9,2,1,2,true,d,false,true,0.0-2.0-0.33-0.300-3.300,0,0,1,68,false,stim,false,2,362,2,1,2,63806,WMM2,709791,false,false,1006,image-keyboard-response,19
true,9,2,1,2,true,d,false,true,0.0-2.0-0.33-0.301-3.301,0,0,1,68,false,stim,false,2,470,2,1,2,63806,WMM2,711799,false,false,1009,image-keyboard-response,20
true,9,2,1,2,true,d,false,true,0.0-2.0-0.33-0.302-3.302,0,0,1,68,false,stim,false,2,453,2,1,2,63806,WMM2,713783,false,false,1012,image-keyboard-response,21
true,9,0,1,0,true,q,false,false,0.0-2.0-0.33-0.303-3.303,0,0,1,81,false,stim,false,1,663,2,0,1,63806,WMM2,715967,false,true,1015,image-keyboard-response,22
true,9,0,1,0,true,q,false,true,0.0-2.0-0.33-0.304-3.304,0,0,1,81,false,stim,false,1,329,2,0,1,63806,WMM2,717839,false,false,1018,image-keyboard-response,23
true,9,1,1,1,true,z,false,true,0.0-2.0-0.33-0.305-3.305,0,0,1,90,false,stim,false,0,454,2,0,0,63806,WMM2,719823,false,false,1021,image-keyboard-response,24
true,9,1,1,1,true,z,false,true,0.0-2.0-0.34-0.306-3.306,0,0,1,90,false,stim,false,0,394,2,0,0,63806,WMM2,721743,false,false,1024,image-keyboard-response,25
true,9,0,1,0,true,q,false,true,0.0-2.0-0.34-0.307-3.307,0,0,1,81,false,stim,false,1,515,2,0,1,63806,WMM2,723783,false,false,1027,image-keyboard-response,26
true,9,2,1,2,true,d,false,true,0.0-2.0-0.34-0.308-3.308,0,0,1,68,false,stim,false,2,718,2,1,2,63806,WMM2,726023,false,false,1030,image-keyboard-response,27
true,9,1,1,1,true,z,false,true,0.0-2.0-0.34-0.309-3.309,0,0,1,90,false,stim,false,0,585,2,0,0,63806,WMM2,728135,false,false,1033,image-keyboard-response,28
true,9,2,1,2,true,d,false,true,0.0-2.0-0.34-0.310-3.310,0,0,1,68,false,stim,false,2,471,2,1,2,63806,WMM2,730139,false,false,1036,image-keyboard-response,29
true,9,1,1,1,true,z,false,true,0.0-2.0-0.34-0.311-3.311,0,0,1,90,false,stim,false,0,417,2,0,0,63806,WMM2,732087,false,false,1039,image-keyboard-response,30
true,10,0,1,1,false,z,false,true,0.0-2.0-0.34-0.312-3.312,0,0,1,81,true,stim,true,0,546,2,0,1,63806,WMM2,734175,false,true,1042,image-keyboard-response,1
true,10,2,1,2,true,d,false,true,0.0-2.0-0.34-0.313-3.313,0,0,1,68,false,stim,false,2,550,2,1,2,63806,WMM2,736255,false,false,1045,image-keyboard-response,2
true,10,0,1,1,false,z,false,false,0.0-2.0-0.34-0.314-3.314,0,0,1,81,false,stim,true,0,809,2,0,1,63806,WMM2,738599,false,false,1048,image-keyboard-response,3
true,10,0,1,2,false,d,true,false,0.0-2.0-0.35-0.315-3.315,0,0,1,81,false,stim,false,1,637,2,0,0,63806,WMM2,740767,false,false,1051,image-keyboard-response,4
true,10,2,1,2,true,d,false,true,0.0-2.0-0.35-0.316-3.316,0,0,1,68,false,stim,false,2,535,2,1,2,63806,WMM2,742839,false,false,1054,image-keyboard-response,5
true,10,1,1,1,true,z,false,true,0.0-2.0-0.35-0.317-3.317,0,0,1,90,false,stim,false,0,411,2,0,1,63806,WMM2,744791,false,false,1057,image-keyboard-response,6
true,10,1,1,1,true,z,false,true,0.0-2.0-0.35-0.318-3.318,0,0,1,90,false,stim,false,0,439,2,0,1,63806,WMM2,746759,false,false,1060,image-keyboard-response,7
true,10,2,1,2,true,d,false,true,0.0-2.0-0.35-0.319-3.319,0,0,1,68,false,stim,false,2,547,2,1,2,63806,WMM2,748847,false,false,1063,image-keyboard-response,8
true,10,2,1,2,true,d,false,true,0.0-2.0-0.35-0.320-3.320,0,0,1,68,false,stim,false,2,524,2,1,2,63806,WMM2,750903,false,false,1066,image-keyboard-response,9
true,10,0,1,2,false,d,true,false,0.0-2.0-0.35-0.321-3.321,0,0,1,81,false,stim,false,1,577,2,0,0,63806,WMM2,753015,false,false,1069,image-keyboard-response,10
true,10,1,1,1,true,z,false,true,0.0-2.0-0.35-0.322-3.322,0,0,1,90,false,stim,false,0,484,2,0,1,63806,WMM2,755023,false,false,1072,image-keyboard-response,11
true,10,2,1,2,true,d,false,true,0.0-2.0-0.35-0.323-3.323,0,0,1,68,false,stim,false,1,456,2,0,0,63806,WMM2,757015,false,false,1075,image-keyboard-response,12
true,10,2,1,2,true,d,false,false,0.0-2.0-0.36-0.324-3.324,0,0,1,68,false,stim,false,2,389,2,1,2,63806,WMM2,758927,false,true,1078,image-keyboard-response,13
true,10,2,1,2,true,d,false,true,0.0-2.0-0.36-0.325-3.325,0,0,1,68,false,stim,false,2,356,2,1,2,63806,WMM2,760815,false,false,1081,image-keyboard-response,14
true,10,2,1,2,true,d,false,true,0.0-2.0-0.36-0.326-3.326,0,0,1,68,false,stim,false,1,371,2,0,0,63806,WMM2,762711,false,false,1084,image-keyboard-response,15
true,10,1,1,1,true,z,false,true,0.0-2.0-0.36-0.327-3.327,0,0,1,90,false,stim,false,0,679,2,0,1,63806,WMM2,764919,false,false,1087,image-keyboard-response,16
true,10,2,1,2,true,d,false,true,0.0-2.0-0.36-0.328-3.328,0,0,1,68,false,stim,false,2,404,2,1,2,63806,WMM2,766863,false,false,1090,image-keyboard-response,17
true,10,1,1,1,true,z,false,true,0.0-2.0-0.36-0.329-3.329,0,0,1,90,false,stim,false,0,472,2,0,1,63806,WMM2,768871,false,false,1093,image-keyboard-response,18
true,10,1,1,1,true,z,false,true,0.0-2.0-0.36-0.330-3.330,0,0,1,90,false,stim,false,0,480,2,0,1,63806,WMM2,770879,false,false,1096,image-keyboard-response,19
true,10,2,1,2,true,d,false,true,0.0-2.0-0.36-0.331-3.331,0,0,1,68,false,stim,false,1,467,2,0,0,63806,WMM2,772887,false,false,1099,image-keyboard-response,20
true,10,2,1,2,true,d,false,true,0.0-2.0-0.36-0.332-3.332,0,0,1,68,false,stim,false,1,407,2,1,0,63806,WMM2,774847,false,false,1102,image-keyboard-response,21
true,10,1,1,1,true,z,false,true,0.0-2.0-0.37-0.333-3.333,0,0,1,90,false,stim,false,0,707,2,1,1,63806,WMM2,777087,false,false,1105,image-keyboard-response,22
true,10,2,1,2,true,d,false,true,0.0-2.0-0.37-0.334-3.334,0,0,1,68,false,stim,false,2,443,2,0,2,63806,WMM2,779063,false,false,1108,image-keyboard-response,23
true,10,2,1,2,true,d,false,true,0.0-2.0-0.37-0.335-3.335,0,0,1,68,false,stim,false,1,320,2,1,0,63806,WMM2,780919,false,false,1111,image-keyboard-response,24
true,10,2,1,2,true,d,false,true,0.0-2.0-0.37-0.336-3.336,0,0,1,68,false,stim,false,1,404,2,1,0,63806,WMM2,782863,false,false,1114,image-keyboard-response,25
true,10,2,1,2,true,d,false,false,0.0-2.0-0.37-0.337-3.337,0,0,1,68,false,stim,false,2,471,2,0,2,63806,WMM2,784871,false,true,1117,image-keyboard-response,26
true,10,2,1,2,true,d,false,true,0.0-2.0-0.37-0.338-3.338,0,0,1,68,false,stim,false,2,392,2,0,2,63806,WMM2,786791,false,false,1120,image-keyboard-response,27
true,10,2,1,2,true,d,false,true,0.0-2.0-0.37-0.339-3.339,0,0,1,68,false,stim,false,1,528,2,1,0,63806,WMM2,788847,false,false,1123,image-keyboard-response,28
true,10,1,1,1,true,z,false,true,0.0-2.0-0.37-0.340-3.340,0,0,1,90,false,stim,false,0,524,2,1,1,63806,WMM2,790903,false,false,1126,image-keyboard-response,29
true,10,1,1,1,true,z,false,true,0.0-2.0-0.37-0.341-3.341,0,0,1,90,false,stim,false,0,488,2,1,1,63806,WMM2,792927,false,false,1129,image-keyboard-response,30
true,11,2,2,1,false,z,false,true,0.0-2.0-0.38-0.342-3.342,1,1,0,68,true,stim,true,2,427,2,0,2,63806,WMM2,794887,false,true,1132,image-keyboard-response,1
true,11,1,2,2,false,d,true,false,0.0-2.0-0.38-0.343-3.343,1,1,0,90,false,stim,false,2,475,2,1,0,63806,WMM2,796895,false,false,1135,image-keyboard-response,2
true,11,2,2,2,true,d,false,true,0.0-2.0-0.38-0.344-3.344,1,1,0,68,false,stim,false,2,427,2,1,0,63806,WMM2,798847,false,false,1138,image-keyboard-response,3
true,11,2,2,1,false,z,false,false,0.0-2.0-0.38-0.345-3.345,1,1,0,68,false,stim,true,2,611,2,0,2,63806,WMM2,800991,false,false,1141,image-keyboard-response,4
true,11,2,2,1,false,z,false,false,0.0-2.0-0.38-0.346-3.346,1,1,0,68,false,stim,true,2,391,2,0,2,63806,WMM2,802911,false,false,1144,image-keyboard-response,5
true,11,1,2,1,true,z,false,true,0.0-2.0-0.38-0.347-3.347,1,1,0,90,false,stim,false,1,624,2,1,1,63806,WMM2,805063,false,false,1147,image-keyboard-response,6
true,11,0,2,1,false,z,true,false,0.0-2.0-0.38-0.348-3.348,1,1,0,81,false,stim,false,1,512,2,1,1,63806,WMM2,807111,false,false,1150,image-keyboard-response,7
true,11,1,2,1,true,z,false,true,0.0-2.0-0.38-0.349-3.349,1,1,0,90,false,stim,false,1,500,2,1,1,63806,WMM2,809140,false,false,1153,image-keyboard-response,8
true,11,2,2,2,true,d,false,true,0.0-2.0-0.38-0.350-3.350,1,1,0,68,false,stim,false,2,720,2,1,0,63806,WMM2,811399,false,false,1156,image-keyboard-response,9
true,11,0,2,1,false,z,true,false,0.0-2.0-0.39-0.351-3.351,1,1,0,81,false,stim,false,2,675,2,0,2,63806,WMM2,813615,false,false,1159,image-keyboard-response,10
true,11,1,2,1,true,z,false,true,0.0-2.0-0.39-0.352-3.352,1,1,0,90,false,stim,false,1,612,2,1,1,63806,WMM2,815750,false,false,1162,image-keyboard-response,11
true,11,1,2,1,true,z,false,true,0.0-2.0-0.39-0.353-3.353,1,1,0,90,false,stim,false,2,440,2,0,2,63806,WMM2,817718,false,false,1165,image-keyboard-response,12
true,11,2,2,2,true,d,false,true,0.0-2.0-0.39-0.354-3.354,1,1,0,68,false,stim,false,2,596,2,1,0,63806,WMM2,819855,false,false,1168,image-keyboard-response,13
true,11,2,2,2,true,d,false,true,0.0-2.0-0.39-0.355-3.355,1,1,0,68,false,stim,false,2,700,2,1,0,63806,WMM2,822079,false,false,1171,image-keyboard-response,14
true,11,2,2,2,true,d,false,true,0.0-2.0-0.39-0.356-3.356,1,1,0,68,false,stim,false,2,677,2,1,0,63806,WMM2,824295,false,false,1174,image-keyboard-response,15
true,11,1,2,1,true,z,false,true,0.0-2.0-0.39-0.357-3.357,1,1,0,90,false,stim,false,2,763,2,0,2,63806,WMM2,826583,false,false,1177,image-keyboard-response,16
true,11,1,2,1,true,z,false,true,0.0-2.0-0.39-0.358-3.358,1,1,0,90,false,stim,false,1,344,2,1,1,63806,WMM2,828463,false,false,1180,image-keyboard-response,17
true,11,1,2,1,true,z,false,true,0.0-2.0-0.39-0.359-3.359,1,1,0,90,false,stim,false,1,424,2,1,1,63806,WMM2,830423,false,false,1183,image-keyboard-response,18
true,11,1,2,1,true,z,false,true,0.0-2.0-0.40-0.360-3.360,1,1,0,90,false,stim,false,2,695,2,0,2,63806,WMM2,832655,false,false,1186,image-keyboard-response,19
true,11,1,2,1,true,z,false,true,0.0-2.0-0.40-0.361-3.361,1,1,0,90,false,stim,false,1,396,2,1,1,63806,WMM2,834575,false,false,1189,image-keyboard-response,20
true,11,1,2,1,true,z,false,true,0.0-2.0-0.40-0.362-3.362,1,1,0,90,false,stim,false,2,480,2,1,2,63806,WMM2,836599,false,false,1192,image-keyboard-response,21
true,11,1,2,2,false,d,true,false,0.0-2.0-0.40-0.363-3.363,1,1,0,90,false,stim,false,2,459,2,1,0,63806,WMM2,838599,false,false,1195,image-keyboard-response,22
true,11,2,2,2,true,d,false,false,0.0-2.0-0.40-0.364-3.364,1,1,0,68,false,stim,false,2,356,2,1,0,63806,WMM2,840494,false,true,1198,image-keyboard-response,23
true,11,1,2,1,true,z,false,true,0.0-2.0-0.40-0.365-3.365,1,1,0,90,false,stim,false,1,540,2,0,1,63806,WMM2,842590,false,false,1201,image-keyboard-response,24
true,11,1,2,1,true,z,false,true,0.0-2.0-0.40-0.366-3.366,1,1,0,90,false,stim,false,1,517,2,0,1,63806,WMM2,844647,false,false,1204,image-keyboard-response,25
true,11,2,2,2,true,d,false,true,0.0-2.0-0.40-0.367-3.367,1,1,0,68,false,stim,false,2,554,2,1,0,63806,WMM2,846743,false,false,1207,image-keyboard-response,26
true,11,1,2,1,true,z,false,true,0.0-2.0-0.40-0.368-3.368,1,1,0,90,false,stim,false,2,1033,2,1,2,63806,WMM2,849303,false,false,1210,image-keyboard-response,27
true,11,1,2,2,false,d,true,false,0.0-2.0-0.41-0.369-3.369,1,1,0,90,false,stim,false,2,546,2,1,0,63806,WMM2,851374,false,false,1213,image-keyboard-response,28
true,11,1,2,1,true,z,false,false,0.0-2.0-0.41-0.370-3.370,1,1,0,90,false,stim,false,2,553,2,1,2,63806,WMM2,853463,false,true,1216,image-keyboard-response,29
true,11,2,2,2,true,d,false,true,0.0-2.0-0.41-0.371-3.371,1,1,0,68,false,stim,false,2,561,2,1,0,63806,WMM2,855551,false,false,1219,image-keyboard-response,30
true,12,1,3,1,true,z,false,true,0.0-2.0-0.41-0.372-3.372,1,0,1,90,true,stim,false,1,414,2,1,2,63806,WMM2,857502,false,false,1222,image-keyboard-response,1
true,12,1,3,1,true,z,false,true,0.0-2.0-0.41-0.373-3.373,1,0,1,90,false,stim,false,1,537,2,1,2,63806,WMM2,859567,false,false,1225,image-keyboard-response,2
true,12,2,3,2,true,d,false,true,0.0-2.0-0.41-0.374-3.374,1,0,1,68,false,stim,false,2,514,2,1,0,63806,WMM2,861623,false,false,1228,image-keyboard-response,3
true,12,1,3,2,false,d,false,true,0.0-2.0-0.41-0.375-3.375,1,0,1,90,false,stim,true,1,642,2,0,1,63806,WMM2,863791,false,true,1231,image-keyboard-response,4
true,12,1,3,2,false,d,false,false,0.0-2.0-0.41-0.376-3.376,1,0,1,90,false,stim,true,1,495,2,0,1,63806,WMM2,865815,false,false,1234,image-keyboard-response,5
true,12,1,3,2,false,d,false,false,0.0-2.0-0.41-0.377-3.377,1,0,1,90,false,stim,true,1,427,2,0,1,63806,WMM2,867767,false,false,1237,image-keyboard-response,6
true,12,1,3,2,false,d,false,true,0.0-2.0-0.42-0.378-3.378,1,0,1,90,false,stim,true,1,492,2,0,1,63806,WMM2,869791,false,true,1240,image-keyboard-response,7
true,12,2,3,2,true,d,false,true,0.0-2.0-0.42-0.379-3.379,1,0,1,68,false,stim,false,2,569,2,1,0,63806,WMM2,871887,false,false,1243,image-keyboard-response,8
true,12,2,3,1,false,z,true,false,0.0-2.0-0.42-0.380-3.380,1,0,1,68,false,stim,false,1,548,2,1,2,63806,WMM2,873967,false,false,1246,image-keyboard-response,9
true,12,2,3,2,true,d,false,true,0.0-2.0-0.42-0.381-3.381,1,0,1,68,false,stim,false,2,748,2,1,0,63806,WMM2,876247,false,false,1249,image-keyboard-response,10
true,12,1,3,2,false,d,false,false,0.0-2.0-0.42-0.382-3.382,1,0,1,90,false,stim,true,1,428,2,0,1,63806,WMM2,878206,false,false,1252,image-keyboard-response,11
true,12,1,3,1,true,z,false,true,0.0-2.0-0.42-0.383-3.383,1,0,1,90,false,stim,false,1,411,2,1,2,63806,WMM2,880150,false,false,1255,image-keyboard-response,12
true,12,1,3,2,false,d,false,false,0.0-2.0-0.42-0.384-3.384,1,0,1,90,false,stim,true,1,520,2,0,1,63806,WMM2,882198,false,false,1258,image-keyboard-response,13
true,12,1,3,1,true,z,false,true,0.0-2.0-0.42-0.385-3.385,1,0,1,90,false,stim,false,1,780,2,1,2,63806,WMM2,884519,false,false,1261,image-keyboard-response,14
true,12,2,3,2,true,d,false,false,0.0-2.0-0.42-0.386-3.386,1,0,1,68,false,stim,false,2,616,2,1,0,63806,WMM2,886671,false,true,1264,image-keyboard-response,15
true,12,1,3,1,true,z,false,true,0.0-2.0-0.43-0.387-3.387,1,0,1,90,false,stim,false,1,631,2,1,2,63806,WMM2,888831,false,false,1267,image-keyboard-response,16
true,12,1,3,2,false,d,true,false,0.0-2.0-0.43-0.388-3.388,1,0,1,90,false,stim,false,2,492,2,1,0,63806,WMM2,890846,false,false,1270,image-keyboard-response,17
true,12,0,3,2,false,d,true,false,0.0-2.0-0.43-0.389-3.389,1,0,1,81,false,stim,false,1,579,2,0,1,63806,WMM2,892958,false,false,1273,image-keyboard-response,18
true,12,2,3,2,true,d,false,true,0.0-2.0-0.43-0.390-3.390,1,0,1,68,false,stim,false,2,837,2,1,0,63806,WMM2,895334,false,false,1276,image-keyboard-response,19
true,12,2,3,2,true,d,false,true,0.0-2.0-0.43-0.391-3.391,1,0,1,68,false,stim,false,1,376,2,0,1,63806,WMM2,897230,false,false,1279,image-keyboard-response,20
true,12,1,3,1,true,z,false,true,0.0-2.0-0.43-0.392-3.392,1,0,1,90,false,stim,false,1,419,2,1,2,63806,WMM2,899199,false,false,1282,image-keyboard-response,21
true,12,1,3,1,true,z,false,true,0.0-2.0-0.43-0.393-3.393,1,0,1,90,false,stim,false,1,604,2,1,2,63806,WMM2,901342,false,false,1285,image-keyboard-response,22
true,12,2,3,2,true,d,false,true,0.0-2.0-0.43-0.394-3.394,1,0,1,68,false,stim,false,2,392,2,1,0,63806,WMM2,903271,false,false,1288,image-keyboard-response,23
true,12,2,3,2,true,d,false,true,0.0-2.0-0.43-0.395-3.395,1,0,1,68,false,stim,false,1,356,2,0,1,63806,WMM2,905174,false,false,1291,image-keyboard-response,24
true,12,1,3,1,true,z,false,false,0.0-2.0-0.44-0.396-3.396,1,0,1,90,false,stim,false,1,480,2,1,2,63806,WMM2,907199,false,true,1294,image-keyboard-response,25
true,12,2,3,2,true,d,false,true,0.0-2.0-0.44-0.397-3.397,1,0,1,68,false,stim,false,2,621,2,0,0,63806,WMM2,909358,false,false,1297,image-keyboard-response,26
true,12,2,3,2,true,d,false,false,0.0-2.0-0.44-0.398-3.398,1,0,1,68,false,stim,false,1,651,2,1,1,63806,WMM2,911550,false,true,1300,image-keyboard-response,27
true,12,2,3,1,false,z,true,false,0.0-2.0-0.44-0.399-3.399,1,0,1,68,false,stim,false,1,564,2,1,2,63806,WMM2,913663,false,false,1303,image-keyboard-response,28
true,12,2,3,2,true,d,false,true,0.0-2.0-0.44-0.400-3.400,1,0,1,68,false,stim,false,2,503,2,0,0,63806,WMM2,915702,false,false,1306,image-keyboard-response,29
true,12,2,3,2,true,d,false,true,0.0-2.0-0.44-0.401-3.401,1,0,1,68,false,stim,false,1,586,2,1,1,63806,WMM2,917814,false,false,1309,image-keyboard-response,30
true,12,2,3,2,true,d,false,true,0.0-2.0-0.44-0.402-3.402,1,0,1,68,false,stim,false,2,474,2,0,0,63806,WMM2,919823,false,false,1312,image-keyboard-response,31
true,12,1,3,1,true,z,false,true,0.0-2.0-0.44-0.403-3.403,1,0,1,90,false,stim,false,1,850,2,1,2,63806,WMM2,922199,false,false,1315,image-keyboard-response,32
true,12,2,3,2,true,d,false,true,0.0-2.0-0.44-0.404-3.404,1,0,1,68,false,stim,false,1,429,2,1,1,63806,WMM2,924158,false,false,1318,image-keyboard-response,33
true,12,2,3,2,true,d,false,true,0.0-2.0-0.45-0.405-3.405,1,0,1,68,false,stim,false,1,542,2,1,1,63806,WMM2,926230,false,false,1321,image-keyboard-response,34
true,13,1,2,1,true,z,false,true,0.0-2.0-0.45-0.406-3.406,0,1,1,90,true,stim,false,1,644,2,1,2,63806,WMM2,928399,false,false,1324,image-keyboard-response,1
true,13,2,2,2,true,d,false,true,0.0-2.0-0.45-0.407-3.407,0,1,1,68,false,stim,false,2,779,2,1,1,63806,WMM2,930719,false,false,1327,image-keyboard-response,2
true,13,2,2,1,false,z,false,false,0.0-2.0-0.45-0.408-3.408,0,1,1,68,false,stim,true,2,375,2,0,0,63806,WMM2,932631,false,false,1330,image-keyboard-response,3
true,13,2,2,1,false,z,false,false,0.0-2.0-0.45-0.409-3.409,0,1,1,68,false,stim,true,2,390,2,0,0,63806,WMM2,934543,false,false,1333,image-keyboard-response,4
true,13,1,2,1,true,z,false,true,0.0-2.0-0.45-0.410-3.410,0,1,1,90,false,stim,false,1,574,2,1,2,63806,WMM2,936654,false,false,1336,image-keyboard-response,5
true,13,1,2,1,true,z,false,true,0.0-2.0-0.45-0.411-3.411,0,1,1,90,false,stim,false,1,664,2,1,2,63806,WMM2,938862,false,false,1339,image-keyboard-response,6
true,13,0,2,1,false,z,true,false,0.0-2.0-0.45-0.412-3.412,0,1,1,81,false,stim,false,2,400,2,0,0,63806,WMM2,940799,false,false,1342,image-keyboard-response,7
true,13,2,2,2,true,d,false,true,0.0-2.0-0.45-0.413-3.413,0,1,1,68,false,stim,false,2,723,2,1,1,63806,WMM2,943062,false,false,1345,image-keyboard-response,8
true,13,2,2,2,true,d,false,false,0.0-2.0-0.46-0.414-3.414,0,1,1,68,false,stim,false,2,591,2,1,1,63806,WMM2,945191,false,true,1348,image-keyboard-response,9
true,13,1,2,1,true,z,false,true,0.0-2.0-0.46-0.415-3.415,0,1,1,90,false,stim,false,1,632,2,1,2,63806,WMM2,947350,false,false,1351,image-keyboard-response,10
true,13,2,2,2,true,d,false,true,0.0-2.0-0.46-0.416-3.416,0,1,1,68,false,stim,false,2,759,2,1,1,63806,WMM2,949639,false,false,1354,image-keyboard-response,11
true,13,2,2,1,false,z,false,false,0.0-2.0-0.46-0.417-3.417,0,1,1,68,false,stim,true,2,491,2,0,0,63806,WMM2,951670,false,false,1357,image-keyboard-response,12
true,13,1,2,1,true,z,false,true,0.0-2.0-0.46-0.418-3.418,0,1,1,90,false,stim,false,1,759,2,1,2,63806,WMM2,953958,false,false,1360,image-keyboard-response,13
true,13,1,2,1,true,z,false,true,0.0-2.0-0.46-0.419-3.419,0,1,1,90,false,stim,false,2,396,2,0,0,63806,WMM2,955895,false,false,1363,image-keyboard-response,14
true,13,1,2,1,true,z,false,true,0.0-2.0-0.46-0.420-3.420,0,1,1,90,false,stim,false,1,500,2,1,2,63806,WMM2,957919,false,false,1366,image-keyboard-response,15
true,13,1,2,1,true,z,false,true,0.0-2.0-0.46-0.421-3.421,0,1,1,90,false,stim,false,2,398,2,0,0,63806,WMM2,959847,false,false,1369,image-keyboard-response,16
true,13,2,2,2,true,d,false,true,0.0-2.0-0.46-0.422-3.422,0,1,1,68,false,stim,false,2,522,2,1,1,63806,WMM2,961911,false,false,1372,image-keyboard-response,17
true,13,1,2,1,true,z,false,true,0.0-2.0-0.47-0.423-3.423,0,1,1,90,false,stim,false,2,533,2,0,0,63806,WMM2,963982,false,false,1375,image-keyboard-response,18
true,13,1,2,1,true,z,false,true,0.0-2.0-0.47-0.424-3.424,0,1,1,90,false,stim,false,1,657,2,1,2,63806,WMM2,966166,false,false,1378,image-keyboard-response,19
true,13,2,2,2,true,d,false,true,0.0-2.0-0.47-0.425-3.425,0,1,1,68,false,stim,false,2,729,2,1,1,63806,WMM2,968438,false,false,1381,image-keyboard-response,20
true,13,1,2,1,true,z,false,true,0.0-2.0-0.47-0.426-3.426,0,1,1,90,false,stim,false,1,526,2,0,2,63806,WMM2,970495,false,false,1384,image-keyboard-response,21
true,13,1,2,1,true,z,false,true,0.0-2.0-0.47-0.427-3.427,0,1,1,90,false,stim,false,1,540,2,0,2,63806,WMM2,972558,false,false,1387,image-keyboard-response,22
true,13,2,2,2,true,d,false,true,0.0-2.0-0.47-0.428-3.428,0,1,1,68,false,stim,false,2,931,2,1,1,63806,WMM2,975030,false,false,1390,image-keyboard-response,23
true,13,1,2,1,true,z,false,true,0.0-2.0-0.47-0.429-3.429,0,1,1,90,false,stim,false,2,404,2,1,0,63806,WMM2,976958,false,false,1393,image-keyboard-response,24
true,13,2,2,2,true,d,false,true,0.0-2.0-0.47-0.430-3.430,0,1,1,68,false,stim,false,2,724,2,1,1,63806,WMM2,979223,false,false,1396,image-keyboard-response,25
true,13,1,2,1,true,z,false,true,0.0-2.0-0.47-0.431-3.431,0,1,1,90,false,stim,false,2,396,2,1,0,63806,WMM2,981150,false,false,1399,image-keyboard-response,26
true,13,2,2,2,true,d,false,true,0.0-2.0-0.48-0.432-3.432,0,1,1,68,false,stim,false,2,517,2,1,1,63806,WMM2,983206,false,false,1402,image-keyboard-response,27
true,13,2,2,2,true,d,false,true,0.0-2.0-0.48-0.433-3.433,0,1,1,68,false,stim,false,2,620,2,1,1,63806,WMM2,985359,false,false,1405,image-keyboard-response,28
true,13,1,2,1,true,z,false,true,0.0-2.0-0.48-0.434-3.434,0,1,1,90,false,stim,false,1,420,2,0,2,63806,WMM2,987318,false,false,1408,image-keyboard-response,29
true,13,1,2,1,true,z,false,true,0.0-2.0-0.48-0.435-3.435,0,1,1,90,false,stim,false,2,416,2,1,0,63806,WMM2,989270,false,false,1411,image-keyboard-response,30
true,14,0,0,2,false,d,true,false,0.0-2.0-0.48-0.436-3.436,1,1,0,81,true,stim,false,2,765,2,1,1,63806,WMM2,1034294,false,false,1456,image-keyboard-response,1
true,14,0,0,1,false,z,true,false,0.0-2.0-0.48-0.437-3.437,1,1,0,81,false,stim,false,1,386,2,1,0,63806,WMM2,1036214,false,false,1459,image-keyboard-response,2
true,14,1,0,1,true,z,false,true,0.0-2.0-0.48-0.438-3.438,1,1,0,90,false,stim,false,1,1209,2,1,0,63806,WMM2,1038958,false,false,1462,image-keyboard-response,3
true,14,2,0,1,false,z,true,false,0.0-2.0-0.48-0.439-3.439,1,1,0,68,false,stim,false,1,602,2,0,2,63806,WMM2,1041087,false,false,1465,image-keyboard-response,4
true,14,0,0,1,false,z,true,false,0.0-2.0-0.48-0.440-3.440,1,1,0,81,false,stim,false,1,394,2,0,2,63806,WMM2,1043022,false,false,1468,image-keyboard-response,5
true,14,1,0,2,false,d,true,false,0.0-2.0-0.49-0.441-3.441,1,1,0,90,false,stim,false,2,810,2,1,1,63806,WMM2,1045358,false,false,1471,image-keyboard-response,6
true,14,1,0,1,true,z,false,true,0.0-2.0-0.49-0.442-3.442,1,1,0,90,false,stim,false,1,610,2,0,2,63806,WMM2,1047494,false,false,1474,image-keyboard-response,7
true,14,2,0,2,true,d,false,true,0.0-2.0-0.49-0.443-3.443,1,1,0,68,false,stim,false,2,762,2,1,1,63806,WMM2,1049790,false,false,1477,image-keyboard-response,8
true,14,1,0,1,true,z,false,true,0.0-2.0-0.49-0.444-3.444,1,1,0,90,false,stim,false,1,446,2,1,0,63806,WMM2,1051775,false,false,1480,image-keyboard-response,9
true,14,1,0,1,true,z,false,false,0.0-2.0-0.49-0.445-3.445,1,1,0,90,false,stim,false,1,441,2,0,2,63806,WMM2,1053750,false,true,1483,image-keyboard-response,10
true,14,1,0,1,true,z,false,true,0.0-2.0-0.49-0.446-3.446,1,1,0,90,false,stim,false,1,403,2,1,0,63806,WMM2,1055686,false,false,1486,image-keyboard-response,11
true,14,1,0,1,true,z,false,true,0.0-2.0-0.49-0.447-3.447,1,1,0,90,false,stim,false,1,472,2,1,0,63806,WMM2,1057702,false,false,1489,image-keyboard-response,12
true,14,1,0,1,true,z,false,true,0.0-2.0-0.49-0.448-3.448,1,1,0,90,false,stim,false,1,377,2,0,2,63806,WMM2,1059606,false,false,1492,image-keyboard-response,13
true,14,2,0,2,true,d,false,true,0.0-2.0-0.49-0.449-3.449,1,1,0,68,false,stim,false,2,506,2,1,1,63806,WMM2,1061654,false,false,1495,image-keyboard-response,14
true,14,2,0,2,true,d,false,true,0.0-2.0-0.50-0.450-3.450,1,1,0,68,false,stim,false,2,511,2,1,1,63806,WMM2,1063694,false,false,1498,image-keyboard-response,15
true,14,1,0,1,true,z,false,true,0.0-2.0-0.50-0.451-3.451,1,1,0,90,false,stim,false,1,601,2,0,2,63806,WMM2,1065854,false,false,1501,image-keyboard-response,16
true,14,1,0,1,true,z,false,false,0.0-2.0-0.50-0.452-3.452,1,1,0,90,false,stim,false,1,493,2,0,2,63806,WMM2,1067878,false,true,1504,image-keyboard-response,17
true,14,1,0,1,true,z,false,true,0.0-2.0-0.50-0.453-3.453,1,1,0,90,false,stim,false,1,476,2,1,0,63806,WMM2,1069895,false,false,1507,image-keyboard-response,18
true,14,2,0,2,true,d,false,true,0.0-2.0-0.50-0.454-3.454,1,1,0,68,false,stim,false,2,444,2,1,1,63806,WMM2,1071862,false,false,1510,image-keyboard-response,19
true,14,1,0,1,true,z,false,true,0.0-2.0-0.50-0.455-3.455,1,1,0,90,false,stim,false,1,392,2,0,2,63806,WMM2,1073791,false,false,1513,image-keyboard-response,20
true,14,1,0,1,true,z,false,false,0.0-2.0-0.50-0.456-3.456,1,1,0,90,false,stim,false,1,444,2,1,0,63806,WMM2,1075782,false,true,1516,image-keyboard-response,21
true,14,2,0,2,true,d,false,true,0.0-2.0-0.50-0.457-3.457,1,1,0,68,false,stim,false,2,608,2,0,1,63806,WMM2,1077927,false,false,1519,image-keyboard-response,22
true,14,1,0,1,true,z,false,true,0.0-2.0-0.50-0.458-3.458,1,1,0,90,false,stim,false,1,516,2,1,0,63806,WMM2,1079974,false,false,1522,image-keyboard-response,23
true,14,2,0,2,true,d,false,true,0.0-2.0-0.51-0.459-3.459,1,1,0,68,false,stim,false,2,540,2,0,1,63806,WMM2,1082038,false,false,1525,image-keyboard-response,24
true,14,2,0,2,true,d,false,true,0.0-2.0-0.51-0.460-3.460,1,1,0,68,false,stim,false,2,884,2,0,1,63806,WMM2,1084462,false,false,1528,image-keyboard-response,25
true,14,1,0,1,true,z,false,true,0.0-2.0-0.51-0.461-3.461,1,1,0,90,false,stim,false,1,376,2,0,2,63806,WMM2,1086375,false,false,1531,image-keyboard-response,26
true,14,1,0,1,true,z,false,true,0.0-2.0-0.51-0.462-3.462,1,1,0,90,false,stim,false,1,396,2,1,0,63806,WMM2,1088294,false,false,1534,image-keyboard-response,27
true,14,1,0,1,true,z,false,true,0.0-2.0-0.51-0.463-3.463,1,1,0,90,false,stim,false,1,546,2,1,0,63806,WMM2,1090374,false,false,1537,image-keyboard-response,28
true,14,2,0,2,true,d,false,true,0.0-2.0-0.51-0.464-3.464,1,1,0,68,false,stim,false,2,682,2,0,1,63806,WMM2,1092590,false,false,1540,image-keyboard-response,29
true,14,1,0,1,true,z,false,true,0.0-2.0-0.51-0.465-3.465,1,1,0,90,false,stim,false,1,445,2,0,2,63806,WMM2,1094574,false,false,1543,image-keyboard-response,30
true,15,1,1,2,false,d,false,false,0.0-2.0-0.51-0.466-3.466,1,0,0,90,true,stim,true,1,666,2,0,2,63806,WMM2,1096775,false,false,1546,image-keyboard-response,1
true,15,1,1,1,true,z,false,true,0.0-2.0-0.51-0.467-3.467,1,0,0,90,false,stim,false,1,506,2,1,0,63806,WMM2,1098814,false,false,1549,image-keyboard-response,2
true,15,1,1,1,true,z,false,true,0.0-2.0-0.52-0.468-3.468,1,0,0,90,false,stim,false,1,569,2,1,0,63806,WMM2,1100918,false,false,1552,image-keyboard-response,3
true,15,1,1,1,true,z,false,true,0.0-2.0-0.52-0.469-3.469,1,0,0,90,false,stim,false,2,549,2,0,1,63806,WMM2,1102999,false,false,1555,image-keyboard-response,4
true,15,1,1,1,true,z,false,true,0.0-2.0-0.52-0.470-3.470,1,0,0,90,false,stim,false,1,630,2,1,0,63806,WMM2,1105158,false,false,1558,image-keyboard-response,5
true,15,1,1,1,true,z,false,true,0.0-2.0-0.52-0.471-3.471,1,0,0,90,false,stim,false,1,522,2,1,0,63806,WMM2,1107206,false,false,1561,image-keyboard-response,6
true,15,1,1,2,false,d,false,false,0.0-2.0-0.52-0.472-3.472,1,0,0,90,false,stim,true,1,1106,2,0,2,63806,WMM2,1109855,false,false,1564,image-keyboard-response,7
true,15,1,1,1,true,z,false,true,0.0-2.0-0.52-0.473-3.473,1,0,0,90,false,stim,false,2,405,2,0,1,63806,WMM2,1111790,false,false,1567,image-keyboard-response,8
true,15,2,1,2,true,d,false,true,0.0-2.0-0.52-0.474-3.474,1,0,0,68,false,stim,false,1,1174,2,0,2,63806,WMM2,1114502,false,false,1570,image-keyboard-response,9
true,15,2,1,2,true,d,false,true,0.0-2.0-0.52-0.475-3.475,1,0,0,68,false,stim,false,1,423,2,0,2,63806,WMM2,1116455,false,false,1573,image-keyboard-response,10
true,15,1,1,1,true,z,false,true,0.0-2.0-0.52-0.476-3.476,1,0,0,90,false,stim,false,2,463,2,0,1,63806,WMM2,1118446,false,false,1576,image-keyboard-response,11
true,15,2,1,2,true,d,false,true,0.0-2.0-0.53-0.477-3.477,1,0,0,68,false,stim,false,1,727,2,0,2,63806,WMM2,1120710,false,false,1579,image-keyboard-response,12
true,15,1,1,1,true,z,false,true,0.0-2.0-0.53-0.478-3.478,1,0,0,90,false,stim,false,1,550,2,1,0,63806,WMM2,1122798,false,false,1582,image-keyboard-response,13
true,15,1,1,1,true,z,false,true,0.0-2.0-0.53-0.479-3.479,1,0,0,90,false,stim,false,2,348,2,0,1,63806,WMM2,1124678,false,false,1585,image-keyboard-response,14
true,15,2,1,2,true,d,false,true,0.0-2.0-0.53-0.480-3.480,1,0,0,68,false,stim,false,1,501,2,0,2,63806,WMM2,1126710,false,false,1588,image-keyboard-response,15
true,15,1,1,1,true,z,false,true,0.0-2.0-0.53-0.481-3.481,1,0,0,90,false,stim,false,2,405,2,0,1,63806,WMM2,1128654,false,false,1591,image-keyboard-response,16
true,15,2,1,2,true,d,false,true,0.0-2.0-0.53-0.482-3.482,1,0,0,68,false,stim,false,1,799,2,0,2,63806,WMM2,1130982,false,false,1594,image-keyboard-response,17
true,15,1,1,1,true,z,false,true,0.0-2.0-0.53-0.483-3.483,1,0,0,90,false,stim,false,1,670,2,1,0,63806,WMM2,1133198,false,false,1597,image-keyboard-response,18
true,15,1,1,1,true,z,false,true,0.0-2.0-0.53-0.484-3.484,1,0,0,90,false,stim,false,2,341,2,0,1,63806,WMM2,1135070,false,false,1600,image-keyboard-response,19
true,15,1,1,1,true,z,false,true,0.0-2.0-0.53-0.485-3.485,1,0,0,90,false,stim,false,1,521,2,1,0,63806,WMM2,1137150,false,false,1603,image-keyboard-response,20
true,15,2,1,2,true,d,false,true,0.0-2.0-0.54-0.486-3.486,1,0,0,68,false,stim,false,1,370,2,1,2,63806,WMM2,1139054,false,false,1606,image-keyboard-response,21
true,15,1,1,1,true,z,false,true,0.0-2.0-0.54-0.487-3.487,1,0,0,90,false,stim,false,1,540,2,0,0,63806,WMM2,1141118,false,false,1609,image-keyboard-response,22
true,15,1,1,1,true,z,false,true,0.0-2.0-0.54-0.488-3.488,1,0,0,90,false,stim,false,1,475,2,0,0,63806,WMM2,1143134,false,false,1612,image-keyboard-response,23
true,15,1,1,1,true,z,false,false,0.0-2.0-0.54-0.489-3.489,1,0,0,90,false,stim,false,2,588,2,1,1,63806,WMM2,1145246,false,true,1615,image-keyboard-response,24
true,15,2,1,2,true,d,false,true,0.0-2.0-0.54-0.490-3.490,1,0,0,68,false,stim,false,1,475,2,1,2,63806,WMM2,1147254,false,false,1618,image-keyboard-response,25
true,15,1,1,1,true,z,false,true,0.0-2.0-0.54-0.491-3.491,1,0,0,90,false,stim,false,2,347,2,1,1,63806,WMM2,1149126,false,false,1621,image-keyboard-response,26
true,15,1,1,1,true,z,false,true,0.0-2.0-0.54-0.492-3.492,1,0,0,90,false,stim,false,1,587,2,0,0,63806,WMM2,1151246,false,false,1624,image-keyboard-response,27
true,15,2,1,2,true,d,false,true,0.0-2.0-0.54-0.493-3.493,1,0,0,68,false,stim,false,1,779,2,1,2,63806,WMM2,1153558,false,false,1627,image-keyboard-response,28
true,15,1,1,1,true,z,false,true,0.0-2.0-0.54-0.494-3.494,1,0,0,90,false,stim,false,2,411,2,1,1,63806,WMM2,1155510,false,false,1630,image-keyboard-response,29
true,15,1,1,1,true,z,false,true,0.0-2.0-0.55-0.495-3.495,1,0,0,90,false,stim,false,2,520,2,1,1,63806,WMM2,1157558,false,false,1633,image-keyboard-response,30
true,16,2,4,2,true,d,false,false,0.0-2.0-0.55-0.496-3.496,0,1,1,68,true,stim,false,2,771,2,1,2,63806,WMM2,1159870,false,true,1636,image-keyboard-response,1
true,16,1,4,1,true,z,false,true,0.0-2.0-0.55-0.497-3.497,0,1,1,90,false,stim,false,1,512,2,0,0,63806,WMM2,1161910,false,false,1639,image-keyboard-response,2
true,16,1,4,1,true,z,false,true,0.0-2.0-0.55-0.498-3.498,0,1,1,90,false,stim,false,1,527,2,0,0,63806,WMM2,1163966,false,false,1642,image-keyboard-response,3
true,16,2,4,2,true,d,false,false,0.0-2.0-0.55-0.499-3.499,0,1,1,68,false,stim,false,2,563,2,1,2,63806,WMM2,1166062,false,true,1645,image-keyboard-response,4
true,16,1,4,1,true,z,false,true,0.0-2.0-0.55-0.500-3.500,0,1,1,90,false,stim,false,1,680,2,1,1,63806,WMM2,1168278,false,false,1648,image-keyboard-response,5
true,16,1,4,1,true,z,false,true,0.0-2.0-0.55-0.501-3.501,0,1,1,90,false,stim,false,1,524,2,0,0,63806,WMM2,1170342,false,false,1651,image-keyboard-response,6
true,16,1,4,1,true,z,false,true,0.0-2.0-0.55-0.502-3.502,0,1,1,90,false,stim,false,1,544,2,1,1,63806,WMM2,1172422,false,false,1654,image-keyboard-response,7
true,16,2,4,2,true,d,false,true,0.0-2.0-0.55-0.503-3.503,0,1,1,68,false,stim,false,2,560,2,1,2,63806,WMM2,1174518,false,false,1657,image-keyboard-response,8
true,16,1,4,1,true,z,false,true,0.0-2.0-0.56-0.504-3.504,0,1,1,90,false,stim,false,1,387,2,1,1,63806,WMM2,1176446,false,false,1660,image-keyboard-response,9
true,16,1,4,1,true,z,false,true,0.0-2.0-0.56-0.505-3.505,0,1,1,90,false,stim,false,1,516,2,0,0,63806,WMM2,1178494,false,false,1663,image-keyboard-response,10
true,16,1,4,1,true,z,false,false,0.0-2.0-0.56-0.506-3.506,0,1,1,90,false,stim,false,1,460,2,1,1,63806,WMM2,1180478,false,true,1666,image-keyboard-response,11
true,16,2,4,2,true,d,false,true,0.0-2.0-0.56-0.507-3.507,0,1,1,68,false,stim,false,2,564,2,1,2,63806,WMM2,1182582,false,false,1669,image-keyboard-response,12
true,16,1,4,1,true,z,false,false,0.0-2.0-0.56-0.508-3.508,0,1,1,90,false,stim,false,1,519,2,0,0,63806,WMM2,1184638,false,true,1672,image-keyboard-response,13
true,16,1,4,1,true,z,false,true,0.0-2.0-0.56-0.509-3.509,0,1,1,90,false,stim,false,1,429,2,1,1,63806,WMM2,1186608,false,false,1675,image-keyboard-response,14
true,16,1,4,1,true,z,false,true,0.0-2.0-0.56-0.510-3.510,0,1,1,90,false,stim,false,1,395,2,0,0,63806,WMM2,1188534,false,false,1678,image-keyboard-response,15
true,16,2,4,2,true,d,false,true,0.0-2.0-0.56-0.511-3.511,0,1,1,68,false,stim,false,2,548,2,1,2,63806,WMM2,1190606,false,false,1681,image-keyboard-response,16
true,16,2,4,2,true,d,false,true,0.0-2.0-0.56-0.512-3.512,0,1,1,68,false,stim,false,2,650,2,1,2,63806,WMM2,1192790,false,false,1684,image-keyboard-response,17
true,16,1,4,1,true,z,false,true,0.0-2.0-0.57-0.513-3.513,0,1,1,90,false,stim,false,1,616,2,1,1,63806,WMM2,1194934,false,false,1687,image-keyboard-response,18
true,16,1,4,1,true,z,false,true,0.0-2.0-0.57-0.514-3.514,0,1,1,90,false,stim,false,1,644,2,0,0,63806,WMM2,1197102,false,false,1690,image-keyboard-response,19
true,16,1,4,1,true,z,false,true,0.0-2.0-0.57-0.515-3.515,0,1,1,90,false,stim,false,1,414,2,0,0,63806,WMM2,1199054,false,false,1693,image-keyboard-response,20
true,16,1,4,1,true,z,false,true,0.0-2.0-0.57-0.516-3.516,0,1,1,90,false,stim,false,1,489,2,0,0,63806,WMM2,1201086,false,false,1696,image-keyboard-response,21
true,16,1,4,1,true,z,false,true,0.0-2.0-0.57-0.517-3.517,0,1,1,90,false,stim,false,1,395,2,1,1,63806,WMM2,1203014,false,false,1699,image-keyboard-response,22
true,16,1,4,1,true,z,false,true,0.0-2.0-0.57-0.518-3.518,0,1,1,90,false,stim,false,1,423,2,1,1,63806,WMM2,1204982,false,false,1702,image-keyboard-response,23
true,16,2,4,2,true,d,false,true,0.0-2.0-0.57-0.519-3.519,0,1,1,68,false,stim,false,2,599,2,0,2,63806,WMM2,1207118,false,false,1705,image-keyboard-response,24
true,16,2,4,2,true,d,false,true,0.0-2.0-0.57-0.520-3.520,0,1,1,68,false,stim,false,2,540,2,0,2,63806,WMM2,1209198,false,false,1708,image-keyboard-response,25
true,16,2,4,2,true,d,false,true,0.0-2.0-0.57-0.521-3.521,0,1,1,68,false,stim,false,2,443,2,0,2,63806,WMM2,1211182,false,false,1711,image-keyboard-response,26
true,16,2,4,2,true,d,false,true,0.0-2.0-0.58-0.522-3.522,0,1,1,68,false,stim,false,2,448,2,0,2,63806,WMM2,1213166,false,false,1714,image-keyboard-response,27
true,16,2,4,2,true,d,false,true,0.0-2.0-0.58-0.523-3.523,0,1,1,68,false,stim,false,2,436,2,0,2,63806,WMM2,1215134,false,false,1717,image-keyboard-response,28
true,16,1,4,1,true,z,false,true,0.0-2.0-0.58-0.524-3.524,0,1,1,90,false,stim,false,1,580,2,0,0,63806,WMM2,1217238,false,false,1720,image-keyboard-response,29
true,16,1,4,1,true,z,false,true,0.0-2.0-0.58-0.525-3.525,0,1,1,90,false,stim,false,1,451,2,1,1,63806,WMM2,1219230,false,false,1723,image-keyboard-response,30
true,17,2,1,0,false,q,false,false,0.0-2.0-0.58-0.526-3.526,0,1,0,68,true,stim,true,2,433,2,0,2,63806,WMM2,1221190,false,false,1726,image-keyboard-response,1
true,17,1,1,1,true,z,false,true,0.0-2.0-0.58-0.527-3.527,0,1,0,90,false,stim,false,1,533,2,1,1,63806,WMM2,1223262,false,false,1729,image-keyboard-response,2
true,17,1,1,1,true,z,false,false,0.0-2.0-0.58-0.528-3.528,0,1,0,90,false,stim,false,1,439,2,1,1,63806,WMM2,1225222,false,true,1732,image-keyboard-response,3
true,17,1,1,2,false,d,false,false,0.0-2.0-0.58-0.529-3.529,0,1,0,90,false,stim,true,1,506,2,0,0,63806,WMM2,1227254,false,false,1735,image-keyboard-response,4
true,17,1,1,2,false,d,false,false,0.0-2.0-0.58-0.530-3.530,0,1,0,90,false,stim,true,1,430,2,0,0,63806,WMM2,1229214,false,false,1738,image-keyboard-response,5
true,17,2,1,1,false,z,true,true,0.0-2.0-0.59-0.531-3.531,0,1,0,68,false,stim,false,1,674,2,1,1,63806,WMM2,1231422,false,true,1741,image-keyboard-response,6
true,17,2,1,2,true,d,false,true,0.0-2.0-0.59-0.532-3.532,0,1,0,68,false,stim,false,1,530,2,0,0,63806,WMM2,1233478,false,false,1744,image-keyboard-response,7
true,17,1,1,0,false,q,true,false,0.0-2.0-0.59-0.533-3.533,0,1,0,90,false,stim,false,2,373,2,0,2,63806,WMM2,1235382,false,false,1747,image-keyboard-response,8
true,17,2,1,1,false,z,true,false,0.0-2.0-0.59-0.534-3.534,0,1,0,68,false,stim,false,1,733,2,1,1,63806,WMM2,1237661,false,false,1750,image-keyboard-response,9
true,17,2,1,2,true,d,false,false,0.0-2.0-0.59-0.535-3.535,0,1,0,68,false,stim,false,1,349,2,0,0,63806,WMM2,1239534,false,true,1753,image-keyboard-response,10
true,17,1,1,0,false,q,true,false,0.0-2.0-0.59-0.536-3.536,0,1,0,90,false,stim,false,2,738,2,0,2,63806,WMM2,1241807,false,false,1756,image-keyboard-response,11
true,17,2,1,1,false,z,true,false,0.0-2.0-0.59-0.537-3.537,0,1,0,68,false,stim,false,1,353,2,1,1,63806,WMM2,1243702,false,false,1759,image-keyboard-response,12
true,17,0,1,0,true,q,false,true,0.0-2.0-0.59-0.538-3.538,0,1,0,81,false,stim,false,2,849,2,0,2,63806,WMM2,1246078,false,false,1762,image-keyboard-response,13
true,17,2,1,2,true,d,false,true,0.0-2.0-0.59-0.539-3.539,0,1,0,68,false,stim,false,1,726,2,0,0,63806,WMM2,1248334,false,false,1765,image-keyboard-response,14
true,17,2,1,2,true,d,false,false,0.0-2.0-0.60-0.540-3.540,0,1,0,68,false,stim,false,1,554,2,0,0,63806,WMM2,1250422,false,true,1768,image-keyboard-response,15
true,17,2,1,1,false,z,true,false,0.0-2.0-0.60-0.541-3.541,0,1,0,68,false,stim,false,1,771,2,1,1,63806,WMM2,1252718,false,false,1771,image-keyboard-response,16
true,17,1,1,2,false,d,false,false,0.0-2.0-0.60-0.542-3.542,0,1,0,90,false,stim,true,1,1157,2,0,0,63806,WMM2,1255406,false,false,1774,image-keyboard-response,17
true,17,0,1,0,true,q,false,true,0.0-2.0-0.60-0.543-3.543,0,1,0,81,false,stim,false,2,505,2,0,2,63806,WMM2,1257454,false,false,1777,image-keyboard-response,18
true,17,0,1,0,true,q,false,true,0.0-2.0-0.60-0.544-3.544,0,1,0,81,false,stim,false,2,351,2,0,2,63806,WMM2,1259334,false,false,1780,image-keyboard-response,19
true,17,0,1,1,false,z,true,false,0.0-2.0-0.60-0.545-3.545,0,1,0,81,false,stim,false,1,409,2,1,1,63806,WMM2,1261278,false,false,1783,image-keyboard-response,20
true,17,0,1,0,true,q,false,true,0.0-2.0-0.60-0.546-3.546,0,1,0,81,false,stim,false,2,1113,2,0,2,63806,WMM2,1263941,false,false,1786,image-keyboard-response,21
true,17,2,1,1,false,z,true,false,0.0-2.0-0.60-0.547-3.547,0,1,0,68,false,stim,false,1,633,2,1,1,63806,WMM2,1266118,false,false,1789,image-keyboard-response,22
true,17,0,1,2,false,d,true,false,0.0-2.0-0.60-0.548-3.548,0,1,0,81,false,stim,false,1,450,2,0,0,63806,WMM2,1268118,false,false,1792,image-keyboard-response,23
true,17,0,1,2,false,d,true,false,0.0-2.0-0.61-0.549-3.549,0,1,0,81,false,stim,false,1,401,2,0,0,63806,WMM2,1270070,false,false,1795,image-keyboard-response,24
true,17,2,1,2,true,d,false,false,0.0-2.0-0.61-0.550-3.550,0,1,0,68,false,stim,false,1,414,2,0,0,63806,WMM2,1272022,false,true,1798,image-keyboard-response,25
true,17,1,1,2,false,d,false,false,0.0-2.0-0.61-0.551-3.551,0,1,0,90,false,stim,true,1,374,2,0,0,63806,WMM2,1273982,false,false,1801,image-keyboard-response,26
true,17,1,1,1,true,z,false,false,0.0-2.0-0.61-0.552-3.552,0,1,0,90,false,stim,false,1,1159,2,1,1,63806,WMM2,1276677,false,true,1804,image-keyboard-response,27
true,17,0,1,0,true,q,false,true,0.0-2.0-0.61-0.553-3.553,0,1,0,81,false,stim,false,2,563,2,0,2,63806,WMM2,1278782,false,false,1807,image-keyboard-response,28
true,17,0,1,0,true,q,false,false,0.0-2.0-0.61-0.554-3.554,0,1,0,81,false,stim,false,2,590,2,0,2,63806,WMM2,1280918,false,true,1810,image-keyboard-response,29
true,17,0,1,1,false,z,true,false,0.0-2.0-0.61-0.555-3.555,0,1,0,81,false,stim,false,1,497,2,1,1,63806,WMM2,1282965,false,false,1813,image-keyboard-response,30
true,17,0,1,0,true,q,false,true,0.0-2.0-0.61-0.556-3.556,0,1,0,81,false,stim,false,2,497,2,0,2,63806,WMM2,1284982,false,false,1816,image-keyboard-response,31
true,17,0,1,1,false,z,true,false,0.0-2.0-0.61-0.557-3.557,0,1,0,81,false,stim,false,1,341,2,1,1,63806,WMM2,1286870,false,false,1819,image-keyboard-response,32
true,17,1,1,1,true,z,false,true,0.0-2.0-0.62-0.558-3.558,0,1,0,90,false,stim,false,1,389,2,1,1,63806,WMM2,1288798,false,false,1822,image-keyboard-response,33
true,17,1,1,1,true,z,false,true,0.0-2.0-0.62-0.559-3.559,0,1,0,90,false,stim,false,1,394,2,1,1,63806,WMM2,1290741,false,false,1825,image-keyboard-response,34
true,17,0,1,0,true,q,false,true,0.0-2.0-0.62-0.560-3.560,0,1,0,81,false,stim,false,2,642,2,0,2,63806,WMM2,1292926,false,false,1828,image-keyboard-response,35
true,17,1,1,2,false,d,false,false,0.0-2.0-0.62-0.561-3.561,0,1,0,90,false,stim,true,1,826,2,0,0,63806,WMM2,1295294,false,false,1831,image-keyboard-response,36
true,17,0,1,0,true,q,false,true,0.0-2.0-0.62-0.562-3.562,0,1,0,81,false,stim,false,2,608,2,0,2,63806,WMM2,1297437,false,false,1834,image-keyboard-response,37
true,17,1,1,1,true,z,false,true,0.0-2.0-0.62-0.563-3.563,0,1,0,90,false,stim,false,1,462,2,1,1,63806,WMM2,1299429,false,false,1837,image-keyboard-response,38
true,17,0,1,0,true,q,false,true,0.0-2.0-0.62-0.564-3.564,0,1,0,81,false,stim,false,2,493,2,0,2,63806,WMM2,1301462,false,false,1840,image-keyboard-response,39
true,17,0,1,2,false,d,true,false,0.0-2.0-0.62-0.565-3.565,0,1,0,81,false,stim,false,1,366,2,0,0,63806,WMM2,1303374,false,false,1843,image-keyboard-response,40
true,17,0,1,2,false,d,true,false,0.0-2.0-0.62-0.566-3.566,0,1,0,81,false,stim,false,1,341,2,0,0,63806,WMM2,1305270,false,false,1846,image-keyboard-response,41
true,17,2,1,2,true,d,false,true,0.0-2.0-0.63-0.567-3.567,0,1,0,68,false,stim,false,1,454,2,0,0,63806,WMM2,1307262,false,false,1849,image-keyboard-response,42
true,17,1,1,1,true,z,false,true,0.0-2.0-0.63-0.568-3.568,0,1,0,90,false,stim,false,1,725,2,1,1,63806,WMM2,1309533,false,false,1852,image-keyboard-response,43
true,17,0,1,0,true,q,false,true,0.0-2.0-0.63-0.569-3.569,0,1,0,81,false,stim,false,2,618,2,0,2,63806,WMM2,1311686,false,false,1855,image-keyboard-response,44
true,17,1,1,1,true,z,false,true,0.0-2.0-0.63-0.570-3.570,0,1,0,90,false,stim,false,1,481,2,1,1,63806,WMM2,1313710,false,false,1858,image-keyboard-response,45
true,17,1,1,1,true,z,false,true,0.0-2.0-0.63-0.571-3.571,0,1,0,90,false,stim,false,1,501,2,1,1,63806,WMM2,1315749,false,false,1861,image-keyboard-response,46
true,17,0,1,0,true,q,false,false,0.0-2.0-0.63-0.572-3.572,0,1,0,81,false,stim,false,2,602,2,0,2,63806,WMM2,1317885,false,true,1864,image-keyboard-response,47
true,17,2,1,2,true,d,false,true,0.0-2.0-0.63-0.573-3.573,0,1,0,68,false,stim,false,1,592,2,0,0,63806,WMM2,1320022,false,false,1867,image-keyboard-response,48
true,17,0,1,0,true,q,false,true,0.0-2.0-0.63-0.574-3.574,0,1,0,81,false,stim,false,2,606,2,1,2,63806,WMM2,1322174,false,false,1870,image-keyboard-response,49
true,17,2,1,2,true,d,false,true,0.0-2.0-0.63-0.575-3.575,0,1,0,68,false,stim,false,1,585,2,1,0,63806,WMM2,1324294,false,false,1873,image-keyboard-response,50
true,17,2,1,2,true,d,false,false,0.0-2.0-0.64-0.576-3.576,0,1,0,68,false,stim,false,1,617,2,1,0,63806,WMM2,1326446,false,true,1876,image-keyboard-response,51
true,17,1,1,1,true,z,false,false,0.0-2.0-0.64-0.577-3.577,0,1,0,90,false,stim,false,1,343,2,0,1,63806,WMM2,1328326,false,true,1879,image-keyboard-response,52
true,17,0,1,0,true,q,false,true,0.0-2.0-0.64-0.578-3.578,0,1,0,81,false,stim,false,2,826,2,1,2,63806,WMM2,1330694,false,false,1882,image-keyboard-response,53
true,17,1,1,1,true,z,false,true,0.0-2.0-0.64-0.579-3.579,0,1,0,90,false,stim,false,1,529,2,0,1,63806,WMM2,1332757,false,false,1885,image-keyboard-response,54
true,17,2,1,2,true,d,false,true,0.0-2.0-0.64-0.580-3.580,0,1,0,68,false,stim,false,1,577,2,1,0,63806,WMM2,1334862,false,false,1888,image-keyboard-response,55
true,17,1,1,1,true,z,false,true,0.0-2.0-0.64-0.581-3.581,0,1,0,90,false,stim,false,1,470,2,0,1,63806,WMM2,1336854,false,false,1891,image-keyboard-response,56
true,17,2,1,2,true,d,false,true,0.0-2.0-0.64-0.582-3.582,0,1,0,68,false,stim,false,1,550,2,1,0,63806,WMM2,1338934,false,false,1894,image-keyboard-response,57
true,17,0,1,0,true,q,false,false,0.0-2.0-0.64-0.583-3.583,0,1,0,81,false,stim,false,2,697,2,1,2,63806,WMM2,1341166,false,true,1897,image-keyboard-response,58
true,18,0,4,0,true,q,false,true,0.0-2.0-0.64-0.584-3.584,1,0,1,81,true,stim,false,0,513,2,1,2,63806,WMM2,1343222,false,false,1900,image-keyboard-response,1
true,18,2,4,2,true,d,false,true,0.0-2.0-0.65-0.585-3.585,1,0,1,68,false,stim,false,2,694,2,1,0,63806,WMM2,1345478,false,false,1903,image-keyboard-response,2
true,18,0,4,0,true,q,false,true,0.0-2.0-0.65-0.586-3.586,1,0,1,81,false,stim,false,0,573,2,1,2,63806,WMM2,1347582,false,false,1906,image-keyboard-response,3
true,18,0,4,0,true,q,false,false,0.0-2.0-0.65-0.587-3.587,1,0,1,81,false,stim,false,0,478,2,1,2,63806,WMM2,1349605,false,true,1909,image-keyboard-response,4
true,18,1,4,1,true,z,false,true,0.0-2.0-0.65-0.588-3.588,1,0,1,90,false,stim,false,1,393,2,0,1,63806,WMM2,1351542,false,false,1912,image-keyboard-response,5
true,18,0,4,0,true,q,false,false,0.0-2.0-0.65-0.589-3.589,1,0,1,81,false,stim,false,0,337,2,1,2,63806,WMM2,1353405,false,true,1915,image-keyboard-response,6
true,18,1,4,1,true,z,false,true,0.0-2.0-0.65-0.590-3.590,1,0,1,90,false,stim,false,1,1074,2,0,1,63806,WMM2,1356022,false,false,1918,image-keyboard-response,7
true,18,1,4,1,true,z,false,true,0.0-2.0-0.65-0.591-3.591,1,0,1,90,false,stim,false,1,611,2,0,1,63806,WMM2,1358157,false,false,1921,image-keyboard-response,8
true,18,2,4,2,true,d,false,true,0.0-2.0-0.65-0.592-3.592,1,0,1,68,false,stim,false,2,649,2,1,0,63806,WMM2,1360334,false,false,1924,image-keyboard-response,9
true,18,2,4,2,true,d,false,true,0.0-2.0-0.65-0.593-3.593,1,0,1,68,false,stim,false,2,561,2,1,0,63806,WMM2,1362430,false,false,1927,image-keyboard-response,10
true,18,1,4,1,true,z,false,true,0.0-2.0-0.66-0.594-3.594,1,0,1,90,false,stim,false,1,837,2,0,1,63806,WMM2,1364806,false,false,1930,image-keyboard-response,11
true,18,2,4,2,true,d,false,true,0.0-2.0-0.66-0.595-3.595,1,0,1,68,false,stim,false,2,626,2,1,0,63806,WMM2,1366974,false,false,1933,image-keyboard-response,12
true,18,1,4,1,true,z,false,true,0.0-2.0-0.66-0.596-3.596,1,0,1,90,false,stim,false,1,586,2,0,1,63806,WMM2,1369094,false,false,1936,image-keyboard-response,13
true,18,2,4,2,true,d,false,true,0.0-2.0-0.66-0.597-3.597,1,0,1,68,false,stim,false,2,833,2,1,0,63806,WMM2,1371462,false,false,1939,image-keyboard-response,14
true,18,2,4,2,true,d,false,false,0.0-2.0-0.66-0.598-3.598,1,0,1,68,false,stim,false,2,557,2,1,0,63806,WMM2,1373541,false,true,1942,image-keyboard-response,15
true,18,2,4,0,false,q,true,false,0.0-2.0-0.66-0.599-3.599,1,0,1,68,false,stim,false,0,817,2,1,2,63806,WMM2,1375885,false,false,1945,image-keyboard-response,16
true,18,1,4,0,false,q,true,false,0.0-2.0-0.66-0.600-3.600,1,0,1,90,false,stim,false,0,569,2,1,2,63806,WMM2,1377998,false,false,1948,image-keyboard-response,17
true,18,1,4,0,false,q,true,false,0.0-2.0-0.66-0.601-3.601,1,0,1,90,false,stim,false,0,437,2,1,2,63806,WMM2,1379965,false,false,1951,image-keyboard-response,18
true,18,1,4,1,true,z,false,false,0.0-2.0-0.66-0.602-3.602,1,0,1,90,false,stim,false,1,785,2,0,1,63806,WMM2,1382294,false,true,1954,image-keyboard-response,19
true,18,0,4,0,true,q,false,true,0.0-2.0-0.67-0.603-3.603,1,0,1,81,false,stim,false,0,537,2,1,2,63806,WMM2,1384366,false,false,1957,image-keyboard-response,20
true,18,0,4,0,true,q,false,true,0.0-2.0-0.67-0.604-3.604,1,0,1,81,false,stim,false,0,417,2,1,2,63806,WMM2,1386325,false,false,1960,image-keyboard-response,21
true,18,0,4,1,false,z,true,false,0.0-2.0-0.67-0.605-3.605,1,0,1,81,false,stim,false,1,873,2,0,1,63806,WMM2,1388741,false,false,1963,image-keyboard-response,22
true,18,0,4,1,false,z,true,false,0.0-2.0-0.67-0.606-3.606,1,0,1,81,false,stim,false,1,682,2,0,1,63806,WMM2,1390966,false,false,1966,image-keyboard-response,23
true,18,2,4,2,true,d,false,false,0.0-2.0-0.67-0.607-3.607,1,0,1,68,false,stim,false,2,754,2,1,0,63806,WMM2,1393262,false,true,1969,image-keyboard-response,24
true,18,1,4,2,false,d,true,false,0.0-2.0-0.67-0.608-3.608,1,0,1,90,false,stim,false,2,373,2,1,0,63806,WMM2,1395182,false,false,1972,image-keyboard-response,25
true,18,1,4,1,true,z,false,true,0.0-2.0-0.67-0.609-3.609,1,0,1,90,false,stim,false,1,1174,2,0,1,63806,WMM2,1397901,false,false,1975,image-keyboard-response,26
true,18,1,4,2,false,d,true,false,0.0-2.0-0.67-0.610-3.610,1,0,1,90,false,stim,false,2,461,2,1,0,63806,WMM2,1399910,false,false,1978,image-keyboard-response,27
true,18,0,4,0,true,q,false,true,0.0-2.0-0.67-0.611-3.611,1,0,1,81,false,stim,false,0,549,2,1,2,63806,WMM2,1401998,false,false,1981,image-keyboard-response,28
true,18,1,4,1,true,z,false,true,0.0-2.0-0.68-0.612-3.612,1,0,1,90,false,stim,false,1,800,2,0,1,63806,WMM2,1404349,false,false,1984,image-keyboard-response,29
true,18,1,4,1,true,z,false,true,0.0-2.0-0.68-0.613-3.613,1,0,1,90,false,stim,false,1,527,2,0,1,63806,WMM2,1406406,false,false,1987,image-keyboard-response,30
true,18,0,4,2,false,d,true,false,0.0-2.0-0.68-0.614-3.614,1,0,1,81,false,stim,false,2,415,2,1,0,63806,WMM2,1408373,false,false,1990,image-keyboard-response,31
true,18,1,4,1,true,z,false,true,0.0-2.0-0.68-0.615-3.615,1,0,1,90,false,stim,false,1,575,2,0,1,63806,WMM2,1410494,false,false,1993,image-keyboard-response,32
true,18,0,4,0,true,q,false,true,0.0-2.0-0.68-0.616-3.616,1,0,1,81,false,stim,false,0,575,2,1,2,63806,WMM2,1412614,false,false,1996,image-keyboard-response,33
true,18,0,4,0,true,q,false,true,0.0-2.0-0.68-0.617-3.617,1,0,1,81,false,stim,false,0,527,2,1,2,63806,WMM2,1414685,false,false,1999,image-keyboard-response,34
true,18,0,4,0,true,q,false,true,0.0-2.0-0.68-0.618-3.618,1,0,1,81,false,stim,false,0,708,2,1,2,63806,WMM2,1416965,false,false,2002,image-keyboard-response,35
true,18,2,4,2,true,d,false,true,0.0-2.0-0.68-0.619-3.619,1,0,1,68,false,stim,false,2,383,2,1,0,63806,WMM2,1418902,false,false,2005,image-keyboard-response,36
true,18,2,4,2,true,d,false,true,0.0-2.0-0.68-0.620-3.620,1,0,1,68,false,stim,false,2,663,2,1,0,63806,WMM2,1421101,false,false,2008,image-keyboard-response,37
true,18,1,4,1,true,z,false,false,0.0-2.0-0.69-0.621-3.621,1,0,1,90,false,stim,false,1,469,2,0,1,63806,WMM2,1423117,false,true,2011,image-keyboard-response,38
true,18,0,4,0,true,q,false,true,0.0-2.0-0.69-0.622-3.622,1,0,1,81,false,stim,false,0,575,2,1,2,63806,WMM2,1425213,false,false,2014,image-keyboard-response,39
true,18,2,4,2,true,d,false,true,0.0-2.0-0.69-0.623-3.623,1,0,1,68,false,stim,false,2,533,2,1,0,63806,WMM2,1427270,false,false,2017,image-keyboard-response,40
true,18,1,4,1,true,z,false,true,0.0-2.0-0.69-0.624-3.624,1,0,1,90,false,stim,false,1,407,2,0,1,63806,WMM2,1429205,false,false,2020,image-keyboard-response,41
true,18,2,4,0,false,q,true,false,0.0-2.0-0.69-0.625-3.625,1,0,1,68,false,stim,false,0,499,2,1,2,63806,WMM2,1431237,false,false,2023,image-keyboard-response,42
true,18,2,4,2,true,d,false,false,0.0-2.0-0.69-0.626-3.626,1,0,1,68,false,stim,false,2,539,2,1,0,63806,WMM2,1433318,false,true,2026,image-keyboard-response,43
true,18,2,4,2,true,d,false,true,0.0-2.0-0.69-0.627-3.627,1,0,1,68,false,stim,false,2,467,2,1,0,63806,WMM2,1435325,false,false,2029,image-keyboard-response,44
true,18,1,4,1,true,z,false,true,0.0-2.0-0.69-0.628-3.628,1,0,1,90,false,stim,false,1,411,2,0,1,63806,WMM2,1437270,false,false,2032,image-keyboard-response,45
true,18,0,4,0,true,q,false,true,0.0-2.0-0.69-0.629-3.629,1,0,1,81,false,stim,false,0,495,2,1,2,63806,WMM2,1439294,false,false,2035,image-keyboard-response,46
true,18,2,4,2,true,d,false,true,0.0-2.0-0.70-0.630-3.630,1,0,1,68,false,stim,false,2,428,2,1,0,63806,WMM2,1441245,false,false,2038,image-keyboard-response,47
true,19,0,3,0,true,q,false,true,0.0-2.0-0.70-0.631-3.631,1,0,1,81,true,stim,false,0,659,2,1,2,63806,WMM2,1443438,false,false,2041,image-keyboard-response,1
true,19,1,3,2,false,d,false,false,0.0-2.0-0.70-0.632-3.632,1,0,1,90,false,stim,true,1,731,2,0,1,63806,WMM2,1445709,false,false,2044,image-keyboard-response,2
true,19,2,3,2,true,d,false,true,0.0-2.0-0.70-0.633-3.633,1,0,1,68,false,stim,false,2,608,2,1,0,63806,WMM2,1447845,false,false,2047,image-keyboard-response,3
true,19,1,3,2,false,d,false,false,0.0-2.0-0.70-0.634-3.634,1,0,1,90,false,stim,true,1,548,2,0,1,63806,WMM2,1449925,false,false,2050,image-keyboard-response,4
true,19,0,3,2,false,d,true,false,0.0-2.0-0.70-0.635-3.635,1,0,1,81,false,stim,false,1,891,2,0,1,63806,WMM2,1452349,false,false,2053,image-keyboard-response,5
true,19,0,3,0,true,q,false,false,0.0-2.0-0.70-0.636-3.636,1,0,1,81,false,stim,false,0,666,2,1,2,63806,WMM2,1454549,false,true,2056,image-keyboard-response,6
true,19,2,3,2,true,d,false,true,0.0-2.0-0.70-0.637-3.637,1,0,1,68,false,stim,false,2,706,2,1,0,63806,WMM2,1456789,false,false,2059,image-keyboard-response,7
true,19,0,3,0,true,q,false,true,0.0-2.0-0.70-0.638-3.638,1,0,1,81,false,stim,false,0,741,2,1,2,63806,WMM2,1459069,false,false,2062,image-keyboard-response,8
true,19,2,3,2,true,d,false,true,0.0-2.0-0.71-0.639-3.639,1,0,1,68,false,stim,false,2,695,2,1,0,63806,WMM2,1461294,false,false,2065,image-keyboard-response,9
