answered,blockNum,choice,condition,corResp,correct,correct_response,explo,fb,internal_node_id,isStable_1,isStable_2,isStable_3,key_press,newBlock,part,persev,persevResp,rt,sessNum,stableAS,stimulus,subject,task,time_elapsed,training,trap,trial_index,trial_type,trialsInBlock
true,1,1,0,0,false,q,true,false,0.0-2.0-0.0-0.0-3.0,0,0,0,90,true,stim,false,-1,461.39999985694885,1,0,0,68822,WMM1,133000,false,false,184,image-keyboard-response,1
true,1,1,0,0,false,q,true,false,0.0-2.0-0.0-0.1-3.1,0,0,0,90,false,stim,false,-1,87.5,1,0,0,68822,WMM1,134625,false,false,187,image-keyboard-response,2
true,1,1,0,1,true,z,false,true,0.0-2.0-0.0-0.2-3.2,0,0,0,90,false,stim,false,-1,243.60000014305115,1,0,1,68822,WMM1,136398,false,false,190,image-keyboard-response,3
true,1,1,0,1,true,z,false,true,0.0-2.0-0.0-0.3-3.3,0,0,0,90,false,stim,false,-1,42.5,1,0,2,68822,WMM1,137963,false,false,193,image-keyboard-response,4
true,1,1,0,1,true,z,false,true,0.0-2.0-0.0-0.4-3.4,0,0,0,90,false,stim,false,-1,1424.6000001430511,1,0,1,68822,WMM1,140912,false,false,196,image-keyboard-response,5
true,1,1,0,0,false,q,true,false,0.0-2.0-0.0-0.5-3.5,0,0,0,90,false,stim,false,-1,550.1999998092651,1,0,0,68822,WMM1,142988,false,false,199,image-keyboard-response,6
true,1,1,0,1,true,z,false,true,0.0-2.0-0.0-0.6-3.6,0,0,0,90,false,stim,false,-1,173.59999990463257,1,0,2,68822,WMM1,144694,false,false,202,image-keyboard-response,7
true,1,1,0,1,true,z,false,true,0.0-2.0-0.0-0.7-3.7,0,0,0,90,false,stim,false,-1,330.10000014305115,1,0,1,68822,WMM1,146552,false,false,205,image-keyboard-response,8
true,1,1,0,1,true,z,false,true,0.0-2.0-0.0-0.8-3.8,0,0,0,90,false,stim,false,-1,351.60000014305115,1,0,2,68822,WMM1,148422,false,false,208,image-keyboard-response,9
true,1,1,0,1,true,z,false,true,0.0-2.0-0.1-0.9-3.9,0,0,0,90,false,stim,false,-1,168.0,1,0,1,68822,WMM1,150115,false,false,211,image-keyboard-response,10
true,1,1,0,1,true,z,false,true,0.0-2.0-0.1-0.10-3.10,0,0,0,90,false,stim,false,-1,428.2000000476837,1,0,2,68822,WMM1,152075,false,false,214,image-keyboard-response,11
true,1,1,0,1,true,z,false,true,0.0-2.0-0.1-0.11-3.11,0,0,0,90,false,stim,false,-1,303.5,1,0,2,68822,WMM1,153895,false,false,217,image-keyboard-response,12
true,1,1,0,1,true,z,false,true,0.0-2.0-0.1-0.12-3.12,0,0,0,90,false,stim,false,-1,718.5,1,0,1,68822,WMM1,156139,false,false,220,image-keyboard-response,13
true,1,1,0,1,true,z,false,true,0.0-2.0-0.1-0.13-3.13,0,0,0,90,false,stim,false,-1,139.5,1,0,2,68822,WMM1,157811,false,false,223,image-keyboard-response,14
true,1,1,0,0,false,q,true,false,0.0-2.0-0.1-0.14-3.14,0,0,0,90,false,stim,false,-1,232.89999985694885,1,0,0,68822,WMM1,159570,false,false,226,image-keyboard-response,15
true,1,1,0,0,false,q,true,false,0.0-2.0-0.1-0.15-3.15,0,0,0,90,false,stim,false,-1,1.4000000953674316,1,0,0,68822,WMM1,161106,false,false,229,image-keyboard-response,16
true,1,1,0,1,true,z,false,true,0.0-2.0-0.1-0.16-3.16,0,0,0,90,false,stim,false,-1,958.7999999523163,1,0,1,68822,WMM1,163596,false,false,232,image-keyboard-response,17
true,1,1,0,0,false,q,true,false,0.0-2.0-0.1-0.17-3.17,0,0,0,90,false,stim,false,-1,273.0,1,0,0,68822,WMM1,165395,false,false,235,image-keyboard-response,18
true,1,1,0,1,true,z,false,true,0.0-2.0-0.2-0.18-3.18,0,0,0,90,false,stim,false,-1,276.09999990463257,1,0,1,68822,WMM1,167198,false,false,238,image-keyboard-response,19
true,1,1,0,1,true,z,false,true,0.0-2.0-0.2-0.19-3.19,0,0,0,90,false,stim,false,-1,231.79999995231628,1,0,1,68822,WMM1,168939,false,false,241,image-keyboard-response,20
true,1,1,0,0,false,q,true,false,0.0-2.0-0.2-0.20-3.20,0,0,0,90,false,stim,false,-1,159.0,1,0,0,68822,WMM1,170629,false,false,244,image-keyboard-response,21
true,1,1,0,0,false,q,true,false,0.0-2.0-0.2-0.21-3.21,0,0,0,90,false,stim,false,-1,127.40000009536743,1,0,0,68822,WMM1,172282,false,false,247,image-keyboard-response,22
true,1,1,0,1,true,z,false,true,0.0-2.0-0.2-0.22-3.22,0,0,0,90,false,stim,false,-1,186.20000004768372,1,0,1,68822,WMM1,173986,false,false,250,image-keyboard-response,23
true,1,1,0,1,true,z,false,true,0.0-2.0-0.2-0.23-3.23,0,0,0,90,false,stim,false,-1,88.90000009536743,1,0,2,68822,WMM1,175610,false,false,253,image-keyboard-response,24
true,1,1,0,0,false,q,true,false,0.0-2.0-0.2-0.24-3.24,0,0,0,90,false,stim,false,-1,242.90000009536743,1,0,0,68822,WMM1,177381,false,false,256,image-keyboard-response,25
true,1,1,0,1,true,z,false,false,0.0-2.0-0.2-0.25-3.25,0,0,0,90,false,stim,false,-1,21.399999856948853,1,0,2,68822,WMM1,178926,false,true,259,image-keyboard-response,26
true,1,1,0,1,true,z,false,true,0.0-2.0-0.2-0.26-3.26,0,0,0,90,false,stim,false,-1,21.0,1,0,2,68822,WMM1,180476,false,false,262,image-keyboard-response,27
true,1,1,0,1,true,z,false,true,0.0-2.0-0.3-0.27-3.27,0,0,0,90,false,stim,false,-1,41.90000009536743,1,0,1,68822,WMM1,182040,false,false,265,image-keyboard-response,28
true,1,1,0,0,false,q,true,true,0.0-2.0-0.3-0.28-3.28,0,0,0,90,false,stim,false,-1,22.299999952316284,1,0,0,68822,WMM1,183577,false,true,268,image-keyboard-response,29
true,1,1,0,1,true,z,false,true,0.0-2.0-0.3-0.29-3.29,0,0,0,90,false,stim,false,-1,248.09999990463257,1,0,2,68822,WMM1,185352,false,false,271,image-keyboard-response,30
true,1,1,0,1,true,z,false,true,0.0-2.0-0.3-0.30-3.30,0,0,0,90,false,stim,false,-1,161.30000019073486,1,0,2,68822,WMM1,187044,false,false,274,image-keyboard-response,31
true,1,1,0,0,false,q,true,false,0.0-2.0-0.3-0.31-3.31,0,0,0,90,false,stim,false,-1,316.39999985694885,1,0,0,68822,WMM1,188883,false,false,277,image-keyboard-response,32
true,1,1,0,0,false,q,true,false,0.0-2.0-0.3-0.32-3.32,0,0,0,90,false,stim,false,-1,8.700000047683716,1,0,0,68822,WMM1,190414,false,false,280,image-keyboard-response,33
true,1,1,0,1,true,z,false,true,0.0-2.0-0.3-0.33-3.33,0,0,0,90,false,stim,false,-1,230.89999985694885,1,0,1,68822,WMM1,192169,false,false,283,image-keyboard-response,34
true,1,1,0,1,true,z,false,false,0.0-2.0-0.3-0.34-3.34,0,0,0,90,false,stim,false,-1,217.29999995231628,1,0,1,68822,WMM1,193922,false,true,286,image-keyboard-response,35
true,1,1,0,1,true,z,false,true,0.0-2.0-0.3-0.35-3.35,0,0,0,90,false,stim,false,-1,237.0,1,0,2,68822,WMM1,195692,false,false,289,image-keyboard-response,36
true,1,1,0,1,true,z,false,true,0.0-2.0-0.4-0.36-3.36,0,0,0,90,false,stim,false,-1,397.2000000476837,1,0,1,68822,WMM1,197619,false,false,292,image-keyboard-response,37
true,1,1,0,0,false,q,true,false,0.0-2.0-0.4-0.37-3.37,0,0,0,90,false,stim,false,-1,517.0999999046326,1,0,0,68822,WMM1,199672,false,false,295,image-keyboard-response,38
true,1,1,0,0,false,q,true,true,0.0-2.0-0.4-0.38-3.38,0,0,0,90,false,stim,false,-1,110.09999990463257,1,0,0,68822,WMM1,201310,false,true,298,image-keyboard-response,39
true,1,1,0,0,false,q,true,false,0.0-2.0-0.4-0.39-3.39,0,0,0,90,false,stim,false,-1,107.79999995231628,1,0,0,68822,WMM1,202948,false,false,301,image-keyboard-response,40
true,1,1,0,1,true,z,false,true,0.0-2.0-0.4-0.40-3.40,0,0,0,90,false,stim,false,-1,17.600000143051147,1,0,2,68822,WMM1,204489,false,false,304,image-keyboard-response,41
true,1,1,0,1,true,z,false,true,0.0-2.0-0.4-0.41-3.41,0,0,0,90,false,stim,false,-1,206.39999985694885,1,0,1,68822,WMM1,206228,false,false,307,image-keyboard-response,42
true,1,1,0,1,true,z,false,true,0.0-2.0-0.4-0.42-3.42,0,0,0,90,false,stim,false,-1,225.0,1,0,2,68822,WMM1,207975,false,false,310,image-keyboard-response,43
true,1,1,0,1,true,z,false,false,0.0-2.0-0.4-0.43-3.43,0,0,0,90,false,stim,false,-1,212.29999995231628,1,0,1,68822,WMM1,209717,false,true,313,image-keyboard-response,44
true,1,1,0,1,true,z,false,true,0.0-2.0-0.4-0.44-3.44,0,0,0,90,false,stim,false,-1,182.40000009536743,1,0,2,68822,WMM1,211437,false,false,316,image-keyboard-response,45
true,1,1,0,1,true,z,false,true,0.0-2.0-0.5-0.45-3.45,0,0,0,90,false,stim,false,-1,240.90000009536743,1,0,2,68822,WMM1,213213,false,false,319,image-keyboard-response,46
true,1,1,0,1,true,z,false,true,0.0-2.0-0.5-0.46-3.46,0,0,0,90,false,stim,false,-1,305.0,1,0,2,68822,WMM1,215044,false,false,322,image-keyboard-response,47
true,1,1,0,1,true,z,false,true,0.0-2.0-0.5-0.47-3.47,0,0,0,90,false,stim,false,-1,131.59999990463257,1,0,2,68822,WMM1,216704,false,false,325,image-keyboard-response,48
true,1,1,0,0,false,q,true,false,0.0-2.0-0.5-0.48-3.48,0,0,0,90,false,stim,false,-1,183.29999995231628,1,0,0,68822,WMM1,218400,false,false,328,image-keyboard-response,49
true,1,1,0,1,true,z,false,true,0.0-2.0-0.5-0.49-3.49,0,0,0,90,false,stim,false,-1,69.60000014305115,1,0,1,68822,WMM1,219992,false,false,331,image-keyboard-response,50
true,1,1,0,0,false,q,true,false,0.0-2.0-0.5-0.50-3.50,0,0,0,90,false,stim,false,-1,152.70000004768372,1,0,0,68822,WMM1,221676,false,false,334,image-keyboard-response,51
true,1,1,0,0,false,q,true,true,0.0-2.0-0.5-0.51-3.51,0,0,0,90,false,stim,false,-1,138.39999985694885,1,0,0,68822,WMM1,223338,false,true,337,image-keyboard-response,52
true,1,1,0,1,true,z,false,true,0.0-2.0-0.5-0.52-3.52,0,0,0,90,false,stim,false,-1,191.90000009536743,1,0,1,68822,WMM1,225064,false,false,340,image-keyboard-response,53
true,1,1,0,1,true,z,false,false,0.0-2.0-0.5-0.53-3.53,0,0,0,90,false,stim,false,-1,660.2999999523163,1,0,1,68822,WMM1,227249,false,true,343,image-keyboard-response,54
true,1,1,0,1,true,z,false,true,0.0-2.0-0.6-0.54-3.54,0,0,0,90,false,stim,false,-1,177.59999990463257,1,0,2,68822,WMM1,228950,false,false,346,image-keyboard-response,55
true,1,1,0,0,false,q,true,false,0.0-2.0-0.6-0.55-3.55,0,0,0,90,false,stim,false,-1,1258.0,1,0,0,68822,WMM1,231730,false,false,349,image-keyboard-response,56
true,1,1,0,1,true,z,false,true,0.0-2.0-0.6-0.56-3.56,0,0,0,90,false,stim,false,-1,338.30000019073486,1,0,1,68822,WMM1,233594,false,false,352,image-keyboard-response,57
true,1,1,0,0,false,q,true,false,0.0-2.0-0.6-0.57-3.57,0,0,0,90,false,stim,false,-1,141.59999990463257,1,0,0,68822,WMM1,235264,false,false,355,image-keyboard-response,58
true,1,1,0,1,true,z,false,true,0.0-2.0-0.6-0.58-3.58,0,0,0,90,false,stim,false,-1,106.0,1,0,2,68822,WMM1,236912,false,false,358,image-keyboard-response,59
true,1,1,0,1,true,z,false,true,0.0-2.0-0.6-0.59-3.59,0,0,0,90,false,stim,false,-1,100.79999995231628,1,0,2,68822,WMM1,238539,false,false,361,image-keyboard-response,60
true,2,1,1,0,false,q,false,false,0.0-2.0-0.6-0.60-3.60,0,0,0,90,true,stim,true,1,295.80000019073486,1,0,1,68822,WMM1,240363,false,false,364,image-keyboard-response,1
true,2,1,1,0,false,q,false,false,0.0-2.0-0.6-0.61-3.61,0,0,0,90,false,stim,true,1,61.59999990463257,1,0,1,68822,WMM1,241943,false,false,367,image-keyboard-response,2
true,2,1,1,2,false,d,true,false,0.0-2.0-0.6-0.62-3.62,0,0,0,90,false,stim,false,0,84.70000004768372,1,0,0,68822,WMM1,243557,false,false,370,image-keyboard-response,3
true,2,1,1,2,false,d,true,false,0.0-2.0-0.7-0.63-3.63,0,0,0,90,false,stim,false,0,237.39999985694885,1,0,0,68822,WMM1,245320,false,false,373,image-keyboard-response,4
true,2,1,1,0,false,q,false,false,0.0-2.0-0.7-0.64-3.64,0,0,0,90,false,stim,true,1,301.7999999523163,1,0,2,68822,WMM1,247151,false,false,376,image-keyboard-response,5
true,2,1,1,0,false,q,false,false,0.0-2.0-0.7-0.65-3.65,0,0,0,90,false,stim,true,1,2611.7000000476837,1,0,1,68822,WMM1,251284,false,false,379,image-keyboard-response,6
true,2,1,1,2,false,d,true,false,0.0-2.0-0.7-0.66-3.66,0,0,0,90,false,stim,false,0,1831.2999999523163,1,0,0,68822,WMM1,254638,false,false,382,image-keyboard-response,7
true,2,1,1,0,false,q,false,false,0.0-2.0-0.7-0.67-3.67,0,0,0,90,false,stim,true,1,782.7999999523163,1,0,1,68822,WMM1,256950,false,false,385,image-keyboard-response,8
true,2,1,1,0,false,q,false,false,0.0-2.0-0.7-0.68-3.68,0,0,0,90,false,stim,true,1,297.2999999523163,1,0,1,68822,WMM1,258770,false,false,388,image-keyboard-response,9
true,2,1,1,0,false,q,false,false,0.0-2.0-0.7-0.69-3.69,0,0,0,90,false,stim,true,1,439.7999999523163,1,0,2,68822,WMM1,260729,false,false,391,image-keyboard-response,10
true,2,1,1,0,false,q,false,true,0.0-2.0-0.7-0.70-3.70,0,0,0,90,false,stim,true,1,30.5,1,0,2,68822,WMM1,262287,false,true,394,image-keyboard-response,11
true,2,1,1,2,false,d,true,false,0.0-2.0-0.7-0.71-3.71,0,0,0,90,false,stim,false,0,108.29999995231628,1,0,0,68822,WMM1,263924,false,false,397,image-keyboard-response,12
true,2,1,1,0,false,q,false,false,0.0-2.0-0.8-0.72-3.72,0,0,0,90,false,stim,true,1,210.89999985694885,1,0,1,68822,WMM1,265667,false,false,400,image-keyboard-response,13
true,2,1,1,2,false,d,true,false,0.0-2.0-0.8-0.73-3.73,0,0,0,90,false,stim,false,0,131.39999985694885,1,0,0,68822,WMM1,267322,false,false,403,image-keyboard-response,14
true,2,1,1,0,false,q,false,false,0.0-2.0-0.8-0.74-3.74,0,0,0,90,false,stim,true,1,28.40000009536743,1,0,2,68822,WMM1,268885,false,false,406,image-keyboard-response,15
true,2,1,1,2,false,d,true,false,0.0-2.0-0.8-0.75-3.75,0,0,0,90,false,stim,false,0,254.20000004768372,1,0,0,68822,WMM1,270660,false,false,409,image-keyboard-response,16
true,2,1,1,0,false,q,false,false,0.0-2.0-0.8-0.76-3.76,0,0,0,90,false,stim,true,1,108.60000014305115,1,0,1,68822,WMM1,272298,false,false,412,image-keyboard-response,17
true,2,1,1,0,false,q,false,false,0.0-2.0-0.8-0.77-3.77,0,0,0,90,false,stim,true,1,181.39999985694885,1,0,2,68822,WMM1,274004,false,false,415,image-keyboard-response,18
true,2,1,1,2,false,d,true,false,0.0-2.0-0.8-0.78-3.78,0,0,0,90,false,stim,false,0,289.0,1,0,0,68822,WMM1,275828,false,false,418,image-keyboard-response,19
true,2,1,1,0,false,q,false,false,0.0-2.0-0.8-0.79-3.79,0,0,0,90,false,stim,true,1,145.5,1,0,1,68822,WMM1,277493,false,false,421,image-keyboard-response,20
true,2,1,1,0,false,q,false,false,0.0-2.0-0.8-0.80-3.80,0,0,0,90,false,stim,true,1,164.80000019073486,1,0,2,68822,WMM1,279181,false,false,424,image-keyboard-response,21
true,2,1,1,0,false,q,false,false,0.0-2.0-0.9-0.81-3.81,0,0,0,90,false,stim,true,1,789.0999999046326,1,0,2,68822,WMM1,281496,false,false,427,image-keyboard-response,22
true,2,1,1,2,false,d,true,false,0.0-2.0-0.9-0.82-3.82,0,0,0,90,false,stim,false,0,159.70000004768372,1,0,0,68822,WMM1,283183,false,false,430,image-keyboard-response,23
true,2,1,1,0,false,q,false,false,0.0-2.0-0.9-0.83-3.83,0,0,0,90,false,stim,true,1,358.40000009536743,1,0,1,68822,WMM1,285065,false,false,433,image-keyboard-response,24
true,2,1,1,2,false,d,true,false,0.0-2.0-0.9-0.84-3.84,0,0,0,90,false,stim,false,0,288.0,1,0,0,68822,WMM1,286878,false,false,436,image-keyboard-response,25
true,2,1,1,0,false,q,false,false,0.0-2.0-0.9-0.85-3.85,0,0,0,90,false,stim,true,1,292.7999999523163,1,0,1,68822,WMM1,288699,false,false,439,image-keyboard-response,26
true,2,1,1,0,false,q,false,false,0.0-2.0-0.9-0.86-3.86,0,0,0,90,false,stim,true,1,138.90000009536743,1,0,2,68822,WMM1,290355,false,false,442,image-keyboard-response,27
true,2,1,1,2,false,d,true,false,0.0-2.0-0.9-0.87-3.87,0,0,0,90,false,stim,false,0,3.9000000953674316,1,0,0,68822,WMM1,291878,false,false,445,image-keyboard-response,28
true,2,1,1,0,false,q,false,false,0.0-2.0-0.9-0.88-3.88,0,0,0,90,false,stim,true,1,253.60000014305115,1,0,2,68822,WMM1,293660,false,false,448,image-keyboard-response,29
true,2,1,1,0,false,q,false,false,0.0-2.0-0.9-0.89-3.89,0,0,0,90,false,stim,true,1,264.2000000476837,1,0,1,68822,WMM1,295449,false,false,451,image-keyboard-response,30
true,2,1,1,2,false,d,true,false,0.0-2.0-0.10-0.90-3.90,0,0,0,90,false,stim,false,0,233.89999985694885,1,0,0,68822,WMM1,297207,false,false,454,image-keyboard-response,31
true,2,1,1,0,false,q,false,false,0.0-2.0-0.10-0.91-3.91,0,0,0,90,false,stim,true,1,473.59999990463257,1,0,2,68822,WMM1,299214,false,false,457,image-keyboard-response,32
true,2,1,1,0,false,q,false,false,0.0-2.0-0.10-0.92-3.92,0,0,0,90,false,stim,true,1,323.10000014305115,1,0,1,68822,WMM1,301063,false,false,460,image-keyboard-response,33
true,2,1,1,0,false,q,false,true,0.0-2.0-0.10-0.93-3.93,0,0,0,90,false,stim,true,1,2034.2000000476837,1,0,1,68822,WMM1,304623,false,true,463,image-keyboard-response,34
true,2,1,1,0,false,q,false,false,0.0-2.0-0.10-0.94-3.94,0,0,0,90,false,stim,true,1,178.5,1,0,1,68822,WMM1,306319,false,false,466,image-keyboard-response,35
true,2,1,1,0,false,q,false,true,0.0-2.0-0.10-0.95-3.95,0,0,0,90,false,stim,true,1,184.5,1,0,2,68822,WMM1,308042,false,true,469,image-keyboard-response,36
true,2,1,1,2,false,d,true,false,0.0-2.0-0.10-0.96-3.96,0,0,0,90,false,stim,false,0,68.0,1,0,0,68822,WMM1,309635,false,false,472,image-keyboard-response,37
true,2,1,1,0,false,q,false,false,0.0-2.0-0.10-0.97-3.97,0,0,0,90,false,stim,true,1,21.200000047683716,1,0,2,68822,WMM1,311192,false,false,475,image-keyboard-response,38
true,2,1,1,2,false,d,true,false,0.0-2.0-0.10-0.98-3.98,0,0,0,90,false,stim,false,0,187.70000004768372,1,0,0,68822,WMM1,312913,false,false,478,image-keyboard-response,39
true,2,1,1,2,false,d,true,false,0.0-2.0-0.11-0.99-3.99,0,0,0,90,false,stim,false,0,53.700000047683716,1,0,0,68822,WMM1,314484,false,false,481,image-keyboard-response,40
true,2,1,1,0,false,q,false,false,0.0-2.0-0.11-0.100-3.100,0,0,0,90,false,stim,true,1,97.70000004768372,1,0,2,68822,WMM1,316097,false,false,484,image-keyboard-response,41
true,2,1,1,2,false,d,true,false,0.0-2.0-0.11-0.101-3.101,0,0,0,90,false,stim,false,0,25.700000047683716,1,0,0,68822,WMM1,317649,false,false,487,image-keyboard-response,42
true,2,1,1,2,false,d,true,false,0.0-2.0-0.11-0.102-3.102,0,0,0,90,false,stim,false,0,265.90000009536743,1,0,0,68822,WMM1,319439,false,false,490,image-keyboard-response,43
true,2,1,1,0,false,q,false,true,0.0-2.0-0.11-0.103-3.103,0,0,0,90,false,stim,true,1,235.70000004768372,1,0,1,68822,WMM1,321202,false,true,493,image-keyboard-response,44
true,2,1,1,0,false,q,false,false,0.0-2.0-0.11-0.104-3.104,0,0,0,90,false,stim,true,1,132.80000019073486,1,0,2,68822,WMM1,322856,false,false,496,image-keyboard-response,45
true,2,1,1,0,false,q,false,false,0.0-2.0-0.11-0.105-3.105,0,0,0,90,false,stim,true,1,211.0,1,0,2,68822,WMM1,324600,false,false,499,image-keyboard-response,46
true,2,1,1,0,false,q,false,false,0.0-2.0-0.11-0.106-3.106,0,0,0,90,false,stim,true,1,99.80000019073486,1,0,1,68822,WMM1,326216,false,false,502,image-keyboard-response,47
true,2,1,1,0,false,q,false,false,0.0-2.0-0.11-0.107-3.107,0,0,0,90,false,stim,true,1,102.90000009536743,1,0,1,68822,WMM1,327843,false,false,505,image-keyboard-response,48
true,2,1,1,0,false,q,false,false,0.0-2.0-0.12-0.108-3.108,0,0,0,90,false,stim,true,1,26.699999809265137,1,0,1,68822,WMM1,329400,false,false,508,image-keyboard-response,49
true,2,1,1,0,false,q,false,false,0.0-2.0-0.12-0.109-3.109,0,0,0,90,false,stim,true,1,275.0,1,0,2,68822,WMM1,331199,false,false,511,image-keyboard-response,50
true,2,1,1,0,false,q,false,false,0.0-2.0-0.12-0.110-3.110,0,0,0,90,false,stim,true,1,86.09999990463257,1,0,1,68822,WMM1,332809,false,false,514,image-keyboard-response,51
true,2,1,1,0,false,q,false,false,0.0-2.0-0.12-0.111-3.111,0,0,0,90,false,stim,true,1,218.39999985694885,1,0,1,68822,WMM1,334559,false,false,517,image-keyboard-response,52
true,2,1,1,2,false,d,true,false,0.0-2.0-0.12-0.112-3.112,0,0,0,90,false,stim,false,0,80.59999990463257,1,0,0,68822,WMM1,336164,false,false,520,image-keyboard-response,53
true,2,1,1,0,false,q,false,false,0.0-2.0-0.12-0.113-3.113,0,0,0,90,false,stim,true,1,256.40000009536743,1,0,2,68822,WMM1,337930,false,false,523,image-keyboard-response,54
true,2,1,1,0,false,q,false,false,0.0-2.0-0.12-0.114-3.114,0,0,0,90,false,stim,true,1,186.90000009536743,1,0,2,68822,WMM1,339644,false,false,526,image-keyboard-response,55
true,2,1,1,2,false,d,true,false,0.0-2.0-0.12-0.115-3.115,0,0,0,90,false,stim,false,0,248.20000004768372,1,0,0,68822,WMM1,341422,false,false,529,image-keyboard-response,56
true,2,1,1,2,false,d,true,false,0.0-2.0-0.12-0.116-3.116,0,0,0,90,false,stim,false,0,189.39999985694885,1,0,0,68822,WMM1,343147,false,false,532,image-keyboard-response,57
true,2,1,1,0,false,q,false,false,0.0-2.0-0.13-0.117-3.117,0,0,0,90,false,stim,true,1,322.2000000476837,1,0,1,68822,WMM1,344986,false,false,535,image-keyboard-response,58
true,2,1,1,2,false,d,true,true,0.0-2.0-0.13-0.118-3.118,0,0,0,90,false,stim,false,0,383.89999985694885,1,0,0,68822,WMM1,346892,false,true,538,image-keyboard-response,59
true,2,1,1,0,false,q,false,false,0.0-2.0-0.13-0.119-3.119,0,0,0,90,false,stim,true,1,160.0,1,0,1,68822,WMM1,348577,false,false,541,image-keyboard-response,60
true,3,2,1,2,true,d,false,true,0.0-2.0-0.13-0.120-3.120,0,0,0,68,true,stim,false,0,73.20000004768372,1,0,2,68822,WMM1,350175,false,false,544,image-keyboard-response,1
true,3,2,1,1,false,z,true,false,0.0-2.0-0.13-0.121-3.121,0,0,0,68,false,stim,false,0,184.29999995231628,1,0,1,68822,WMM1,351891,false,false,547,image-keyboard-response,2
true,3,1,1,1,true,z,false,true,0.0-2.0-0.13-0.122-3.122,0,0,0,90,false,stim,false,2,112.59999990463257,1,0,0,68822,WMM1,353537,false,false,550,image-keyboard-response,3
true,3,2,1,1,false,z,false,false,0.0-2.0-0.13-0.123-3.123,0,0,0,68,false,stim,true,2,224.0,1,0,0,68822,WMM1,355281,false,false,553,image-keyboard-response,4
true,3,2,1,2,true,d,false,true,0.0-2.0-0.13-0.124-3.124,0,0,0,68,false,stim,false,0,75.39999985694885,1,0,2,68822,WMM1,356883,false,false,556,image-keyboard-response,5
true,3,2,1,2,true,d,false,false,0.0-2.0-0.13-0.125-3.125,0,0,0,68,false,stim,false,0,65.39999985694885,1,0,2,68822,WMM1,358475,false,true,559,image-keyboard-response,6
true,3,2,1,1,false,z,true,false,0.0-2.0-0.14-0.126-3.126,0,0,0,68,false,stim,false,0,188.09999990463257,1,0,1,68822,WMM1,360188,false,false,562,image-keyboard-response,7
true,3,2,1,2,true,d,false,true,0.0-2.0-0.14-0.127-3.127,0,0,0,68,false,stim,false,0,67.39999985694885,1,0,2,68822,WMM1,361791,false,false,565,image-keyboard-response,8
true,3,1,1,2,false,d,true,false,0.0-2.0-0.14-0.128-3.128,0,0,0,90,false,stim,false,0,263.40000009536743,1,0,2,68822,WMM1,363571,false,false,568,image-keyboard-response,9
true,3,2,1,1,false,z,false,false,0.0-2.0-0.14-0.129-3.129,0,0,0,68,false,stim,true,2,184.69999980926514,1,0,0,68822,WMM1,365275,false,false,571,image-keyboard-response,10
true,3,1,1,2,false,d,true,false,0.0-2.0-0.14-0.130-3.130,0,0,0,90,false,stim,false,0,312.09999990463257,1,0,2,68822,WMM1,367104,false,false,574,image-keyboard-response,11
true,3,2,1,1,false,z,false,false,0.0-2.0-0.14-0.131-3.131,0,0,0,68,false,stim,true,2,53.700000047683716,1,0,0,68822,WMM1,368689,false,false,577,image-keyboard-response,12
true,3,1,1,1,true,z,false,true,0.0-2.0-0.14-0.132-3.132,0,0,0,90,false,stim,false,2,74.70000004768372,1,0,0,68822,WMM1,370299,false,false,580,image-keyboard-response,13
true,3,1,1,1,true,z,false,true,0.0-2.0-0.14-0.133-3.133,0,0,0,90,false,stim,false,0,163.20000004768372,1,0,1,68822,WMM1,371981,false,false,583,image-keyboard-response,14
true,3,1,1,1,true,z,false,true,0.0-2.0-0.14-0.134-3.134,0,0,0,90,false,stim,false,0,218.59999990463257,1,0,1,68822,WMM1,373726,false,false,586,image-keyboard-response,15
true,3,1,1,2,false,d,true,false,0.0-2.0-0.15-0.135-3.135,0,0,0,90,false,stim,false,0,152.39999985694885,1,0,2,68822,WMM1,375411,false,false,589,image-keyboard-response,16
true,3,2,1,2,true,d,false,true,0.0-2.0-0.15-0.136-3.136,0,0,0,68,false,stim,false,0,258.2999999523163,1,0,2,68822,WMM1,377184,false,false,592,image-keyboard-response,17
true,3,2,1,1,false,z,false,false,0.0-2.0-0.15-0.137-3.137,0,0,0,68,false,stim,true,2,121.5,1,0,0,68822,WMM1,378829,false,false,595,image-keyboard-response,18
true,3,2,1,1,false,z,false,true,0.0-2.0-0.15-0.138-3.138,0,0,0,68,false,stim,true,2,148.19999980926514,1,0,0,68822,WMM1,380506,false,true,598,image-keyboard-response,19
true,3,2,1,1,false,z,true,false,0.0-2.0-0.15-0.139-3.139,0,0,0,68,false,stim,false,0,100.60000014305115,1,0,1,68822,WMM1,382140,false,false,601,image-keyboard-response,20
true,3,2,1,1,false,z,true,false,0.0-2.0-0.15-0.140-3.140,0,0,0,68,false,stim,false,0,154.29999995231628,1,0,1,68822,WMM1,383829,false,false,604,image-keyboard-response,21
true,3,1,1,2,false,d,true,false,0.0-2.0-0.15-0.141-3.141,0,0,0,90,false,stim,false,0,675.2000000476837,1,0,2,68822,WMM1,386033,false,false,607,image-keyboard-response,22
true,3,1,1,1,true,z,false,true,0.0-2.0-0.15-0.142-3.142,0,0,0,90,false,stim,false,2,275.59999990463257,1,0,0,68822,WMM1,387834,false,false,610,image-keyboard-response,23
true,3,1,1,1,true,z,false,true,0.0-2.0-0.15-0.143-3.143,0,0,0,90,false,stim,false,0,237.70000004768372,1,0,1,68822,WMM1,389595,false,false,613,image-keyboard-response,24
true,3,1,1,1,true,z,false,true,0.0-2.0-0.16-0.144-3.144,0,0,0,90,false,stim,false,0,203.0,1,0,1,68822,WMM1,391328,false,false,616,image-keyboard-response,25
true,3,1,1,1,true,z,false,true,0.0-2.0-0.16-0.145-3.145,0,0,0,90,false,stim,false,2,241.29999995231628,1,0,0,68822,WMM1,393100,false,false,619,image-keyboard-response,26
true,3,1,1,2,false,d,true,false,0.0-2.0-0.16-0.146-3.146,0,0,0,90,false,stim,false,0,779.0,1,0,2,68822,WMM1,395403,false,false,622,image-keyboard-response,27
true,3,1,1,2,false,d,true,false,0.0-2.0-0.16-0.147-3.147,0,0,0,90,false,stim,false,0,492.7999999523163,1,0,2,68822,WMM1,397417,false,false,625,image-keyboard-response,28
true,3,1,1,2,false,d,true,false,0.0-2.0-0.16-0.148-3.148,0,0,0,90,false,stim,false,0,278.2999999523163,1,0,2,68822,WMM1,399220,false,false,628,image-keyboard-response,29
true,3,1,1,1,true,z,false,true,0.0-2.0-0.16-0.149-3.149,0,0,0,90,false,stim,false,2,294.5,1,0,0,68822,WMM1,401038,false,false,631,image-keyboard-response,30
true,3,1,1,1,true,z,false,true,0.0-2.0-0.16-0.150-3.150,0,0,0,90,false,stim,false,0,159.59999990463257,1,0,1,68822,WMM1,402734,false,false,634,image-keyboard-response,31
true,3,1,1,1,true,z,false,true,0.0-2.0-0.16-0.151-3.151,0,0,0,90,false,stim,false,0,245.79999995231628,1,0,1,68822,WMM1,404494,false,false,637,image-keyboard-response,32
true,3,1,1,1,true,z,false,true,0.0-2.0-0.16-0.152-3.152,0,0,0,90,false,stim,false,2,508.0,1,0,0,68822,WMM1,406524,false,false,640,image-keyboard-response,33
true,3,1,1,1,true,z,false,true,0.0-2.0-0.17-0.153-3.153,0,0,0,90,false,stim,false,2,522.2999999523163,1,0,0,68822,WMM1,408580,false,false,643,image-keyboard-response,34
true,3,1,1,2,false,d,true,false,0.0-2.0-0.17-0.154-3.154,0,0,0,90,false,stim,false,0,447.89999985694885,1,0,2,68822,WMM1,410556,false,false,646,image-keyboard-response,35
true,3,1,1,1,true,z,false,true,0.0-2.0-0.17-0.155-3.155,0,0,0,90,false,stim,false,0,1577.3000001907349,1,0,1,68822,WMM1,413662,false,false,649,image-keyboard-response,36
true,3,1,1,2,false,d,true,false,0.0-2.0-0.17-0.156-3.156,0,0,0,90,false,stim,false,0,683.0,1,0,2,68822,WMM1,415858,false,false,652,image-keyboard-response,37
true,3,1,1,1,true,z,false,true,0.0-2.0-0.17-0.157-3.157,0,0,0,90,false,stim,false,0,2190.7000000476837,1,0,1,68822,WMM1,419566,false,false,655,image-keyboard-response,38
true,3,1,1,1,true,z,false,true,0.0-2.0-0.17-0.158-3.158,0,0,0,90,false,stim,false,2,354.2999999523163,1,0,0,68822,WMM1,421448,false,false,658,image-keyboard-response,39
true,3,1,1,1,true,z,false,true,0.0-2.0-0.17-0.159-3.159,0,0,0,90,false,stim,false,0,280.90000009536743,1,0,1,68822,WMM1,423249,false,false,661,image-keyboard-response,40
true,3,1,1,2,false,d,true,false,0.0-2.0-0.17-0.160-3.160,0,0,0,90,false,stim,false,0,527.6999998092651,1,0,2,68822,WMM1,425303,false,false,664,image-keyboard-response,41
true,3,1,1,1,true,z,false,true,0.0-2.0-0.17-0.161-3.161,0,0,0,90,false,stim,false,2,589.7999999523163,1,0,0,68822,WMM1,427409,false,false,667,image-keyboard-response,42
true,3,1,1,1,true,z,false,true,0.0-2.0-0.18-0.162-3.162,0,0,0,90,false,stim,false,2,219.70000004768372,1,0,0,68822,WMM1,429162,false,false,670,image-keyboard-response,43
true,3,1,1,2,false,d,true,false,0.0-2.0-0.18-0.163-3.163,0,0,0,90,false,stim,false,0,295.2999999523163,1,0,2,68822,WMM1,430987,false,false,673,image-keyboard-response,44
true,3,1,1,1,true,z,false,true,0.0-2.0-0.18-0.164-3.164,0,0,0,90,false,stim,false,2,128.40000009536743,1,0,0,68822,WMM1,432630,false,false,676,image-keyboard-response,45
true,3,1,1,1,true,z,false,true,0.0-2.0-0.18-0.165-3.165,0,0,0,90,false,stim,false,0,296.80000019073486,1,0,1,68822,WMM1,434449,false,false,679,image-keyboard-response,46
true,3,1,1,1,true,z,false,true,0.0-2.0-0.18-0.166-3.166,0,0,0,90,false,stim,false,2,66.60000014305115,1,0,0,68822,WMM1,436042,false,false,682,image-keyboard-response,47
true,3,1,1,2,false,d,true,false,0.0-2.0-0.18-0.167-3.167,0,0,0,90,false,stim,false,0,255.30000019073486,1,0,2,68822,WMM1,437830,false,false,685,image-keyboard-response,48
true,3,1,1,1,true,z,false,true,0.0-2.0-0.18-0.168-3.168,0,0,0,90,false,stim,false,0,643.0,1,0,1,68822,WMM1,440002,false,false,688,image-keyboard-response,49
true,3,1,1,2,false,d,true,false,0.0-2.0-0.18-0.169-3.169,0,0,0,90,false,stim,false,0,249.5,1,0,2,68822,WMM1,441775,false,false,691,image-keyboard-response,50
true,3,1,1,1,true,z,false,true,0.0-2.0-0.18-0.170-3.170,0,0,0,90,false,stim,false,0,489.2999999523163,1,1,1,68822,WMM1,443798,false,false,694,image-keyboard-response,51
true,3,1,1,1,true,z,false,true,0.0-2.0-0.19-0.171-3.171,0,0,0,90,false,stim,false,0,584.7999999523163,1,1,1,68822,WMM1,445897,false,false,697,image-keyboard-response,52
true,3,1,1,1,true,z,false,true,0.0-2.0-0.19-0.172-3.172,0,0,0,90,false,stim,false,2,347.90000009536743,1,0,0,68822,WMM1,447774,false,false,700,image-keyboard-response,53
true,3,1,1,1,true,z,false,true,0.0-2.0-0.19-0.173-3.173,0,0,0,90,false,stim,false,0,1656.6000001430511,1,1,1,68822,WMM1,450965,false,false,703,image-keyboard-response,54
true,3,1,1,1,true,z,false,true,0.0-2.0-0.19-0.174-3.174,0,0,0,90,false,stim,false,0,255.0,1,1,1,68822,WMM1,452748,false,false,706,image-keyboard-response,55
true,3,1,1,2,false,d,true,true,0.0-2.0-0.19-0.175-3.175,0,0,0,90,false,stim,false,0,627.7999999523163,1,0,2,68822,WMM1,454903,false,true,709,image-keyboard-response,56
true,3,1,1,2,false,d,true,false,0.0-2.0-0.19-0.176-3.176,0,0,0,90,false,stim,false,0,1365.1999998092651,1,0,2,68822,WMM1,457788,false,false,712,image-keyboard-response,57
true,3,1,1,1,true,z,false,true,0.0-2.0-0.19-0.177-3.177,0,0,0,90,false,stim,false,2,733.7999999523163,1,0,0,68822,WMM1,460043,false,false,715,image-keyboard-response,58
true,3,1,1,2,false,d,true,false,0.0-2.0-0.19-0.178-3.178,0,0,0,90,false,stim,false,0,101.40000009536743,1,0,2,68822,WMM1,461677,false,false,718,image-keyboard-response,59
true,3,1,1,1,true,z,false,true,0.0-2.0-0.19-0.179-3.179,0,0,0,90,false,stim,false,2,372.60000014305115,1,0,0,68822,WMM1,463581,false,false,721,image-keyboard-response,60
true,4,1,3,0,false,q,true,false,0.0-2.0-0.20-0.180-3.180,0,1,0,90,true,stim,false,2,96.39999985694885,1,0,2,68822,WMM1,465198,false,false,724,image-keyboard-response,1
true,4,1,3,2,false,d,false,false,0.0-2.0-0.20-0.181-3.181,0,1,0,90,false,stim,true,1,236.89999985694885,1,0,0,68822,WMM1,466956,false,false,727,image-keyboard-response,2
true,4,1,3,2,false,d,false,false,0.0-2.0-0.20-0.182-3.182,0,1,0,90,false,stim,true,1,688.1999998092651,1,0,0,68822,WMM1,469181,false,false,730,image-keyboard-response,3
true,4,1,3,0,false,q,true,false,0.0-2.0-0.20-0.183-3.183,0,1,0,90,false,stim,false,2,704.0999999046326,1,0,2,68822,WMM1,471413,false,false,733,image-keyboard-response,4
true,4,1,3,0,false,q,true,false,0.0-2.0-0.20-0.184-3.184,0,1,0,90,false,stim,false,2,784.2000000476837,1,0,2,68822,WMM1,473710,false,false,736,image-keyboard-response,5
true,4,1,3,1,true,z,false,false,0.0-2.0-0.20-0.185-3.185,0,1,0,90,false,stim,false,1,416.39999985694885,1,1,1,68822,WMM1,475642,false,true,739,image-keyboard-response,6
true,4,1,3,2,false,d,false,false,0.0-2.0-0.20-0.186-3.186,0,1,0,90,false,stim,true,1,286.2999999523163,1,0,0,68822,WMM1,477455,false,false,742,image-keyboard-response,7
true,4,1,3,1,true,z,false,true,0.0-2.0-0.20-0.187-3.187,0,1,0,90,false,stim,false,1,663.3999998569489,1,1,1,68822,WMM1,479639,false,false,745,image-keyboard-response,8
true,4,1,3,1,true,z,false,true,0.0-2.0-0.20-0.188-3.188,0,1,0,90,false,stim,false,1,121.20000004768372,1,1,1,68822,WMM1,481296,false,false,748,image-keyboard-response,9
true,4,1,3,0,false,q,true,false,0.0-2.0-0.21-0.189-3.189,0,1,0,90,false,stim,false,2,519.0999999046326,1,0,2,68822,WMM1,483337,false,false,751,image-keyboard-response,10
true,4,1,3,0,false,q,true,false,0.0-2.0-0.21-0.190-3.190,0,1,0,90,false,stim,false,2,1360.6000001430511,1,0,2,68822,WMM1,486220,false,false,754,image-keyboard-response,11
true,4,1,3,1,true,z,false,true,0.0-2.0-0.21-0.191-3.191,0,1,0,90,false,stim,false,1,684.0999999046326,1,1,1,68822,WMM1,488427,false,false,757,image-keyboard-response,12
true,4,1,3,2,false,d,false,false,0.0-2.0-0.21-0.192-3.192,0,1,0,90,false,stim,true,1,610.5999999046326,1,0,0,68822,WMM1,490570,false,false,760,image-keyboard-response,13
true,4,1,3,2,false,d,false,false,0.0-2.0-0.21-0.193-3.193,0,1,0,90,false,stim,true,1,719.5,1,0,0,68822,WMM1,492813,false,false,763,image-keyboard-response,14
true,4,1,3,0,false,q,true,false,0.0-2.0-0.21-0.194-3.194,0,1,0,90,false,stim,false,2,326.10000014305115,1,0,2,68822,WMM1,494663,false,false,766,image-keyboard-response,15
true,4,1,3,1,true,z,false,false,0.0-2.0-0.21-0.195-3.195,0,1,0,90,false,stim,false,1,509.89999985694885,1,1,1,68822,WMM1,496703,false,true,769,image-keyboard-response,16
true,4,1,3,1,true,z,false,true,0.0-2.0-0.21-0.196-3.196,0,1,0,90,false,stim,false,1,1178.5,1,1,1,68822,WMM1,499405,false,false,772,image-keyboard-response,17
true,4,1,3,2,false,d,false,false,0.0-2.0-0.21-0.197-3.197,0,1,0,90,false,stim,true,1,391.90000009536743,1,0,0,68822,WMM1,501317,false,false,775,image-keyboard-response,18
true,4,1,3,1,true,z,false,true,0.0-2.0-0.22-0.198-3.198,0,1,0,90,false,stim,false,1,666.5,1,1,1,68822,WMM1,503510,false,false,778,image-keyboard-response,19
true,4,1,3,0,false,q,true,false,0.0-2.0-0.22-0.199-3.199,0,1,0,90,false,stim,false,2,936.0999999046326,1,0,2,68822,WMM1,505979,false,false,781,image-keyboard-response,20
true,4,1,3,2,false,d,false,false,0.0-2.0-0.22-0.200-3.200,0,1,0,90,false,stim,true,1,96.20000004768372,1,0,0,68822,WMM1,507605,false,false,784,image-keyboard-response,21
true,4,1,3,0,false,q,true,true,0.0-2.0-0.22-0.201-3.201,0,1,0,90,false,stim,false,2,598.5,1,0,2,68822,WMM1,509743,false,true,787,image-keyboard-response,22
true,4,1,3,0,false,q,true,true,0.0-2.0-0.22-0.202-3.202,0,1,0,90,false,stim,false,2,383.80000019073486,1,0,2,68822,WMM1,511659,false,true,790,image-keyboard-response,23
true,4,1,3,1,true,z,false,false,0.0-2.0-0.22-0.203-3.203,0,1,0,90,false,stim,false,1,103.5,1,1,1,68822,WMM1,513296,false,true,793,image-keyboard-response,24
true,4,1,3,2,false,d,false,false,0.0-2.0-0.22-0.204-3.204,0,1,0,90,false,stim,true,1,0.20000004768371582,1,0,0,68822,WMM1,514816,false,false,796,image-keyboard-response,25
true,4,1,3,2,false,d,false,false,0.0-2.0-0.22-0.205-3.205,0,1,0,90,false,stim,true,1,1036.3999998569489,1,0,0,68822,WMM1,517380,false,false,799,image-keyboard-response,26
true,4,2,3,1,false,z,true,false,0.0-2.0-0.22-0.206-3.206,0,1,0,68,false,stim,false,1,285.90000009536743,1,1,1,68822,WMM1,519196,false,false,802,image-keyboard-response,27
true,4,0,3,2,false,d,true,false,0.0-2.0-0.23-0.207-3.207,0,1,0,81,false,stim,false,1,1748.0,1,0,0,68822,WMM1,522474,false,false,805,image-keyboard-response,28
true,4,1,3,2,false,d,false,false,0.0-2.0-0.23-0.208-3.208,0,1,0,90,false,stim,true,1,457.40000009536743,1,0,0,68822,WMM1,524452,false,false,808,image-keyboard-response,29
true,4,1,3,0,false,q,true,false,0.0-2.0-0.23-0.209-3.209,0,1,0,90,false,stim,false,2,70.59999990463257,1,0,2,68822,WMM1,526047,false,false,811,image-keyboard-response,30
true,4,1,3,0,false,q,true,false,0.0-2.0-0.23-0.210-3.210,0,1,0,90,false,stim,false,2,246.90000009536743,1,0,2,68822,WMM1,527818,false,false,814,image-keyboard-response,31
true,4,0,3,1,false,z,true,false,0.0-2.0-0.23-0.211-3.211,0,1,0,81,false,stim,false,1,170.29999995231628,1,1,1,68822,WMM1,529514,false,false,817,image-keyboard-response,32
true,4,0,3,0,true,q,false,true,0.0-2.0-0.23-0.212-3.212,0,1,0,81,false,stim,false,2,467.39999985694885,1,0,2,68822,WMM1,531511,false,false,820,image-keyboard-response,33
true,4,2,3,1,false,z,true,false,0.0-2.0-0.23-0.213-3.213,0,1,0,68,false,stim,false,1,162.5,1,1,1,68822,WMM1,533206,false,false,823,image-keyboard-response,34
true,4,0,3,1,false,z,true,false,0.0-2.0-0.23-0.214-3.214,0,1,0,81,false,stim,false,1,351.89999985694885,1,1,1,68822,WMM1,535095,false,false,826,image-keyboard-response,35
true,4,0,3,2,false,d,true,false,0.0-2.0-0.23-0.215-3.215,0,1,0,81,false,stim,false,1,626.8000001907349,1,0,0,68822,WMM1,537253,false,false,829,image-keyboard-response,36
true,4,1,3,2,false,d,false,false,0.0-2.0-0.24-0.216-3.216,0,1,0,90,false,stim,true,1,233.29999995231628,1,0,0,68822,WMM1,539011,false,false,832,image-keyboard-response,37
true,4,0,3,2,false,d,true,false,0.0-2.0-0.24-0.217-3.217,0,1,0,81,false,stim,false,1,502.2999999523163,1,0,0,68822,WMM1,541044,false,false,835,image-keyboard-response,38
true,4,1,3,1,true,z,false,true,0.0-2.0-0.24-0.218-3.218,0,1,0,90,false,stim,false,1,246.5,1,1,1,68822,WMM1,542823,false,false,838,image-keyboard-response,39
true,4,1,3,1,true,z,false,true,0.0-2.0-0.24-0.219-3.219,0,1,0,90,false,stim,false,1,911.5,1,1,1,68822,WMM1,545255,false,false,841,image-keyboard-response,40
true,4,1,3,0,false,q,true,false,0.0-2.0-0.24-0.220-3.220,0,1,0,90,false,stim,false,2,1090.9000000953674,1,0,2,68822,WMM1,547885,false,false,844,image-keyboard-response,41
true,4,1,3,2,false,d,false,false,0.0-2.0-0.24-0.221-3.221,0,1,0,90,false,stim,true,1,93.79999995231628,1,0,0,68822,WMM1,549504,false,false,847,image-keyboard-response,42
true,4,1,3,1,true,z,false,true,0.0-2.0-0.24-0.222-3.222,0,1,0,90,false,stim,false,1,236.0,1,1,1,68822,WMM1,551263,false,false,850,image-keyboard-response,43
true,4,1,3,0,false,q,true,false,0.0-2.0-0.24-0.223-3.223,0,1,0,90,false,stim,false,2,309.09999990463257,1,0,2,68822,WMM1,553102,false,false,853,image-keyboard-response,44
true,4,1,3,0,false,q,true,false,0.0-2.0-0.24-0.224-3.224,0,1,0,90,false,stim,false,2,988.5,1,0,2,68822,WMM1,555616,false,false,856,image-keyboard-response,45
true,4,1,3,2,false,d,false,true,0.0-2.0-0.25-0.225-3.225,0,1,0,90,false,stim,true,1,650.5,1,0,0,68822,WMM1,557795,false,true,859,image-keyboard-response,46
true,4,1,3,0,false,q,true,false,0.0-2.0-0.25-0.226-3.226,0,1,0,90,false,stim,false,2,560.3999998569489,1,0,2,68822,WMM1,559888,false,false,862,image-keyboard-response,47
true,4,1,3,1,true,z,false,true,0.0-2.0-0.25-0.227-3.227,0,1,0,90,false,stim,false,1,880.4000000953674,1,1,1,68822,WMM1,562291,false,false,865,image-keyboard-response,48
true,4,1,3,1,true,z,false,true,0.0-2.0-0.25-0.228-3.228,0,1,0,90,false,stim,false,1,455.80000019073486,1,1,1,68822,WMM1,564277,false,false,868,image-keyboard-response,49
true,4,1,3,2,false,d,false,false,0.0-2.0-0.25-0.229-3.229,0,1,0,90,false,stim,true,1,0.09999990463256836,1,0,0,68822,WMM1,565794,false,false,871,image-keyboard-response,50
true,4,2,3,0,false,q,false,true,0.0-2.0-0.25-0.230-3.230,0,1,0,68,false,stim,true,2,265.5,1,0,2,68822,WMM1,567593,false,true,874,image-keyboard-response,51
true,4,1,3,1,true,z,false,true,0.0-2.0-0.25-0.231-3.231,0,1,0,90,false,stim,false,1,292.09999990463257,1,0,1,68822,WMM1,569420,false,false,877,image-keyboard-response,52
true,4,2,3,0,false,q,false,false,0.0-2.0-0.25-0.232-3.232,0,1,0,68,false,stim,true,2,387.40000009536743,1,0,2,68822,WMM1,571325,false,false,880,image-keyboard-response,53
true,4,2,3,2,true,d,false,true,0.0-2.0-0.25-0.233-3.233,0,1,0,68,false,stim,false,1,198.20000004768372,1,0,0,68822,WMM1,573059,false,false,883,image-keyboard-response,54
true,4,1,3,0,false,q,true,false,0.0-2.0-0.26-0.234-3.234,0,1,0,90,false,stim,false,2,226.10000014305115,1,0,2,68822,WMM1,574820,false,false,886,image-keyboard-response,55
true,4,2,3,0,false,q,false,false,0.0-2.0-0.26-0.235-3.235,0,1,0,68,false,stim,true,2,220.30000019073486,1,0,2,68822,WMM1,576565,false,false,889,image-keyboard-response,56
true,4,1,3,0,false,q,true,false,0.0-2.0-0.26-0.236-3.236,0,1,0,90,false,stim,false,2,241.90000009536743,1,0,2,68822,WMM1,578319,false,false,892,image-keyboard-response,57
true,4,2,3,1,false,z,true,false,0.0-2.0-0.26-0.237-3.237,0,1,0,68,false,stim,false,1,127.20000004768372,1,0,1,68822,WMM1,579971,false,false,895,image-keyboard-response,58
true,4,1,3,1,true,z,false,true,0.0-2.0-0.26-0.238-3.238,0,1,0,90,false,stim,false,1,391.7000000476837,1,0,1,68822,WMM1,581886,false,false,898,image-keyboard-response,59
true,4,2,3,2,true,d,false,true,0.0-2.0-0.26-0.239-3.239,0,1,0,68,false,stim,false,1,406.2999999523163,1,0,0,68822,WMM1,583824,false,false,901,image-keyboard-response,60
true,5,1,1,2,false,d,false,false,0.0-2.0-0.26-0.240-3.240,0,0,0,90,true,stim,true,1,233.60000014305115,1,0,1,68822,WMM1,585595,false,false,904,image-keyboard-response,1
true,5,2,1,1,false,z,false,false,0.0-2.0-0.26-0.241-3.241,0,0,0,68,false,stim,true,2,542.6000001430511,1,0,0,68822,WMM1,587663,false,false,907,image-keyboard-response,2
true,5,2,1,1,false,z,false,true,0.0-2.0-0.26-0.242-3.242,0,0,0,68,false,stim,true,2,271.5,1,0,0,68822,WMM1,589457,false,true,910,image-keyboard-response,3
true,5,1,1,1,true,z,false,true,0.0-2.0-0.27-0.243-3.243,0,0,0,90,false,stim,false,2,240.10000014305115,1,0,0,68822,WMM1,591218,false,false,913,image-keyboard-response,4
true,5,2,1,2,true,d,false,true,0.0-2.0-0.27-0.244-3.244,0,0,0,68,false,stim,false,0,628.7000000476837,1,0,2,68822,WMM1,593372,false,false,916,image-keyboard-response,5
true,5,2,1,2,true,d,false,true,0.0-2.0-0.27-0.245-3.245,0,0,0,68,false,stim,false,0,304.5,1,0,2,68822,WMM1,595193,false,false,919,image-keyboard-response,6
true,5,2,1,1,false,z,false,true,0.0-2.0-0.27-0.246-3.246,0,0,0,68,false,stim,true,2,328.2999999523163,1,0,0,68822,WMM1,597056,false,true,922,image-keyboard-response,7
true,5,2,1,1,false,z,false,false,0.0-2.0-0.27-0.247-3.247,0,0,0,68,false,stim,true,2,316.10000014305115,1,0,0,68822,WMM1,598896,false,false,925,image-keyboard-response,8
true,5,2,1,2,true,d,false,false,0.0-2.0-0.27-0.248-3.248,0,0,0,68,false,stim,false,0,330.2000000476837,1,0,2,68822,WMM1,600758,false,true,928,image-keyboard-response,9
true,5,1,1,2,false,d,false,false,0.0-2.0-0.27-0.249-3.249,0,0,0,90,false,stim,true,1,607.3999998569489,1,0,1,68822,WMM1,602902,false,false,931,image-keyboard-response,10
true,5,1,1,2,false,d,false,false,0.0-2.0-0.27-0.250-3.250,0,0,0,90,false,stim,true,1,379.09999990463257,1,0,1,68822,WMM1,604807,false,false,934,image-keyboard-response,11
true,5,2,1,2,true,d,false,true,0.0-2.0-0.27-0.251-3.251,0,0,0,68,false,stim,false,1,329.0,1,0,1,68822,WMM1,606657,false,false,937,image-keyboard-response,12
true,5,2,1,1,false,z,false,false,0.0-2.0-0.28-0.252-3.252,0,0,0,68,false,stim,true,2,122.40000009536743,1,0,0,68822,WMM1,608310,false,false,940,image-keyboard-response,13
true,5,1,1,2,false,d,false,false,0.0-2.0-0.28-0.253-3.253,0,0,0,90,false,stim,true,1,248.60000014305115,1,0,1,68822,WMM1,610093,false,false,943,image-keyboard-response,14
true,5,2,1,2,true,d,false,false,0.0-2.0-0.28-0.254-3.254,0,0,0,68,false,stim,false,0,585.2000000476837,1,0,2,68822,WMM1,612213,false,true,946,image-keyboard-response,15
true,5,2,1,2,true,d,false,true,0.0-2.0-0.28-0.255-3.255,0,0,0,68,false,stim,false,1,792.2999999523163,1,0,1,68822,WMM1,614530,false,false,949,image-keyboard-response,16
true,5,2,1,2,true,d,false,true,0.0-2.0-0.28-0.256-3.256,0,0,0,68,false,stim,false,1,55.200000047683716,1,0,1,68822,WMM1,616100,false,false,952,image-keyboard-response,17
true,5,2,1,2,true,d,false,true,0.0-2.0-0.28-0.257-3.257,0,0,0,68,false,stim,false,0,1439.0,1,0,2,68822,WMM1,619062,false,false,955,image-keyboard-response,18
true,5,2,1,1,false,z,false,false,0.0-2.0-0.28-0.258-3.258,0,0,0,68,false,stim,true,2,176.20000004768372,1,0,0,68822,WMM1,620771,false,false,958,image-keyboard-response,19
true,5,2,1,1,false,z,false,false,0.0-2.0-0.28-0.259-3.259,0,0,0,68,false,stim,true,2,100.79999995231628,1,0,0,68822,WMM1,622395,false,false,961,image-keyboard-response,20
true,5,2,1,2,true,d,false,false,0.0-2.0-0.28-0.260-3.260,0,0,0,68,false,stim,false,0,171.5,1,0,2,68822,WMM1,624100,false,true,964,image-keyboard-response,21
true,5,1,1,2,false,d,true,true,0.0-2.0-0.29-0.261-3.261,0,0,0,90,false,stim,false,0,692.2000000476837,1,0,2,68822,WMM1,626320,false,true,967,image-keyboard-response,22
true,5,2,1,2,true,d,false,false,0.0-2.0-0.29-0.262-3.262,0,0,0,68,false,stim,false,1,506.5,1,0,1,68822,WMM1,628351,false,true,970,image-keyboard-response,23
true,5,2,1,2,true,d,false,false,0.0-2.0-0.29-0.263-3.263,0,0,0,68,false,stim,false,1,330.09999990463257,1,0,1,68822,WMM1,630208,false,true,973,image-keyboard-response,24
true,5,2,1,2,true,d,false,true,0.0-2.0-0.29-0.264-3.264,0,0,0,68,false,stim,false,0,237.69999980926514,1,0,2,68822,WMM1,631976,false,false,976,image-keyboard-response,25
true,5,2,1,1,false,z,false,false,0.0-2.0-0.29-0.265-3.265,0,0,0,68,false,stim,true,2,104.0,1,0,0,68822,WMM1,633615,false,false,979,image-keyboard-response,26
true,5,2,1,1,false,z,false,false,0.0-2.0-0.29-0.266-3.266,0,0,0,68,false,stim,true,2,558.0,1,0,0,68822,WMM1,635697,false,false,982,image-keyboard-response,27
true,5,1,1,2,false,d,true,false,0.0-2.0-0.29-0.267-3.267,0,0,0,90,false,stim,false,0,455.30000019073486,1,0,2,68822,WMM1,637682,false,false,985,image-keyboard-response,28
true,5,2,1,2,true,d,false,true,0.0-2.0-0.29-0.268-3.268,0,0,0,68,false,stim,false,1,916.6000001430511,1,0,1,68822,WMM1,640127,false,false,988,image-keyboard-response,29
true,5,1,1,1,true,z,false,true,0.0-2.0-0.29-0.269-3.269,0,0,0,90,false,stim,false,2,315.90000009536743,1,0,0,68822,WMM1,641978,false,false,991,image-keyboard-response,30
true,5,1,1,1,true,z,false,true,0.0-2.0-0.30-0.270-3.270,0,0,0,90,false,stim,false,2,1031.0999999046326,1,0,0,68822,WMM1,644543,false,false,994,image-keyboard-response,31
true,5,1,1,1,true,z,false,true,0.0-2.0-0.30-0.271-3.271,0,0,0,90,false,stim,false,2,334.0,1,0,0,68822,WMM1,646411,false,false,997,image-keyboard-response,32
true,5,1,1,2,false,d,false,false,0.0-2.0-0.30-0.272-3.272,0,0,0,90,false,stim,true,1,857.7999999523163,1,0,1,68822,WMM1,648786,false,false,1000,image-keyboard-response,33
true,5,1,1,2,false,d,true,false,0.0-2.0-0.30-0.273-3.273,0,0,0,90,false,stim,false,0,329.2000000476837,1,0,2,68822,WMM1,650658,false,false,1003,image-keyboard-response,34
true,5,1,1,2,false,d,true,false,0.0-2.0-0.30-0.274-3.274,0,0,0,90,false,stim,false,0,1520.4000000953674,1,0,2,68822,WMM1,653716,false,false,1006,image-keyboard-response,35
true,5,1,1,2,false,d,true,true,0.0-2.0-0.30-0.275-3.275,0,0,0,90,false,stim,false,0,2812.2000000476837,1,0,2,68822,WMM1,658058,false,true,1009,image-keyboard-response,36
true,5,1,1,2,false,d,false,true,0.0-2.0-0.30-0.276-3.276,0,0,0,90,false,stim,true,1,453.80000019073486,1,0,1,68822,WMM1,660043,false,true,1012,image-keyboard-response,37
true,5,1,1,2,false,d,false,true,0.0-2.0-0.30-0.277-3.277,0,0,0,90,false,stim,true,1,767.2000000476837,1,0,1,68822,WMM1,662346,false,true,1015,image-keyboard-response,38
true,5,1,1,1,true,z,false,true,0.0-2.0-0.30-0.278-3.278,0,0,0,90,false,stim,false,2,875.6000001430511,1,0,0,68822,WMM1,664744,false,false,1018,image-keyboard-response,39
true,5,1,1,2,false,d,true,false,0.0-2.0-0.31-0.279-3.279,0,0,0,90,false,stim,false,0,177.90000009536743,1,0,2,68822,WMM1,666450,false,false,1021,image-keyboard-response,40
true,5,1,1,2,false,d,false,false,0.0-2.0-0.31-0.280-3.280,0,0,0,90,false,stim,true,1,413.40000009536743,1,0,1,68822,WMM1,668392,false,false,1024,image-keyboard-response,41
true,5,1,1,2,false,d,true,false,0.0-2.0-0.31-0.281-3.281,0,0,0,90,false,stim,false,0,1407.7999999523163,1,0,2,68822,WMM1,671337,false,false,1027,image-keyboard-response,42
true,5,1,1,2,false,d,true,false,0.0-2.0-0.31-0.282-3.282,0,0,0,90,false,stim,false,0,226.19999980926514,1,0,2,68822,WMM1,673089,false,false,1030,image-keyboard-response,43
true,5,1,1,2,false,d,false,false,0.0-2.0-0.31-0.283-3.283,0,0,0,90,false,stim,true,1,1225.5,1,0,1,68822,WMM1,675830,false,false,1033,image-keyboard-response,44
true,5,1,1,1,true,z,false,true,0.0-2.0-0.31-0.284-3.284,0,0,0,90,false,stim,false,2,549.0999999046326,1,0,0,68822,WMM1,677913,false,false,1036,image-keyboard-response,45
true,5,1,1,1,true,z,false,true,0.0-2.0-0.31-0.285-3.285,0,0,0,90,false,stim,false,2,1686.5,1,0,0,68822,WMM1,681133,false,false,1039,image-keyboard-response,46
true,5,1,1,2,false,d,false,false,0.0-2.0-0.31-0.286-3.286,0,0,0,90,false,stim,true,1,173.70000004768372,1,0,1,68822,WMM1,682836,false,false,1042,image-keyboard-response,47
true,5,1,1,1,true,z,false,true,0.0-2.0-0.31-0.287-3.287,0,0,0,90,false,stim,false,2,1410.9000000953674,1,0,0,68822,WMM1,685773,false,false,1045,image-keyboard-response,48
true,5,1,1,1,true,z,false,true,0.0-2.0-0.32-0.288-3.288,0,0,0,90,false,stim,false,2,1233.0999999046326,1,0,0,68822,WMM1,688530,false,false,1048,image-keyboard-response,49
true,5,1,1,1,true,z,false,true,0.0-2.0-0.32-0.289-3.289,0,0,0,90,false,stim,false,2,715.0,1,0,0,68822,WMM1,690761,false,false,1051,image-keyboard-response,50
true,5,1,1,2,false,d,false,true,0.0-2.0-0.32-0.290-3.290,0,0,0,90,false,stim,true,1,518.7000000476837,1,0,1,68822,WMM1,692808,false,true,1054,image-keyboard-response,51
true,5,1,1,2,false,d,false,false,0.0-2.0-0.32-0.291-3.291,0,0,0,90,false,stim,true,1,392.7999999523163,1,0,1,68822,WMM1,694722,false,false,1057,image-keyboard-response,52
true,5,1,1,2,false,d,true,true,0.0-2.0-0.32-0.292-3.292,0,0,0,90,false,stim,false,0,512.2000000476837,1,0,2,68822,WMM1,696749,false,true,1060,image-keyboard-response,53
true,5,1,1,2,false,d,true,false,0.0-2.0-0.32-0.293-3.293,0,0,0,90,false,stim,false,0,233.10000014305115,1,0,2,68822,WMM1,698507,false,false,1063,image-keyboard-response,54
true,5,1,1,2,false,d,false,false,0.0-2.0-0.32-0.294-3.294,0,0,0,90,false,stim,true,1,355.09999990463257,1,0,1,68822,WMM1,700385,false,false,1066,image-keyboard-response,55
true,5,1,1,2,false,d,true,false,0.0-2.0-0.32-0.295-3.295,0,0,0,90,false,stim,false,0,712.2000000476837,1,0,2,68822,WMM1,702625,false,false,1069,image-keyboard-response,56
true,5,1,1,1,true,z,false,true,0.0-2.0-0.32-0.296-3.296,0,0,0,90,false,stim,false,2,342.7999999523163,1,0,0,68822,WMM1,704489,false,false,1072,image-keyboard-response,57
true,5,1,1,2,false,d,false,false,0.0-2.0-0.33-0.297-3.297,0,0,0,90,false,stim,true,1,312.30000019073486,1,0,1,68822,WMM1,706325,false,false,1075,image-keyboard-response,58
true,5,1,1,2,false,d,true,false,0.0-2.0-0.33-0.298-3.298,0,0,0,90,false,stim,false,0,301.39999985694885,1,0,2,68822,WMM1,708147,false,false,1078,image-keyboard-response,59
true,5,1,1,1,true,z,false,true,0.0-2.0-0.33-0.299-3.299,0,0,0,90,false,stim,false,2,199.40000009536743,1,0,0,68822,WMM1,709879,false,false,1081,image-keyboard-response,60
true,6,1,2,1,true,z,false,false,0.0-2.0-0.33-0.300-3.300,0,0,0,90,true,stim,false,2,478.0,1,0,1,68822,WMM1,711891,false,true,1084,image-keyboard-response,1
true,6,1,2,0,false,q,true,true,0.0-2.0-0.33-0.301-3.301,0,0,0,90,false,stim,false,2,245.70000004768372,1,0,2,68822,WMM1,713659,false,true,1087,image-keyboard-response,2
true,6,1,2,2,false,d,false,false,0.0-2.0-0.33-0.302-3.302,0,0,0,90,false,stim,true,1,37.700000047683716,1,0,0,68822,WMM1,715217,false,false,1090,image-keyboard-response,3
true,6,1,2,1,true,z,false,true,0.0-2.0-0.33-0.303-3.303,0,0,0,90,false,stim,false,2,152.30000019073486,1,0,1,68822,WMM1,716891,false,false,1093,image-keyboard-response,4
true,6,1,2,2,false,d,false,false,0.0-2.0-0.33-0.304-3.304,0,0,0,90,false,stim,true,1,248.20000004768372,1,0,0,68822,WMM1,718660,false,false,1096,image-keyboard-response,5
true,6,1,2,0,false,q,true,false,0.0-2.0-0.33-0.305-3.305,0,0,0,90,false,stim,false,2,259.7000000476837,1,0,2,68822,WMM1,720456,false,false,1099,image-keyboard-response,6
true,6,1,2,2,false,d,false,false,0.0-2.0-0.34-0.306-3.306,0,0,0,90,false,stim,true,1,142.59999990463257,1,0,0,68822,WMM1,722122,false,false,1102,image-keyboard-response,7
true,6,1,2,2,false,d,false,false,0.0-2.0-0.34-0.307-3.307,0,0,0,90,false,stim,true,1,268.59999990463257,1,0,0,68822,WMM1,723914,false,false,1105,image-keyboard-response,8
true,6,1,2,0,false,q,true,false,0.0-2.0-0.34-0.308-3.308,0,0,0,90,false,stim,false,2,293.10000014305115,1,0,2,68822,WMM1,725738,false,false,1108,image-keyboard-response,9
true,6,1,2,1,true,z,false,true,0.0-2.0-0.34-0.309-3.309,0,0,0,90,false,stim,false,2,122.5,1,0,1,68822,WMM1,727385,false,false,1111,image-keyboard-response,10
true,6,1,2,1,true,z,false,true,0.0-2.0-0.34-0.310-3.310,0,0,0,90,false,stim,false,2,272.0,1,0,1,68822,WMM1,729171,false,false,1114,image-keyboard-response,11
true,6,1,2,0,false,q,true,false,0.0-2.0-0.34-0.311-3.311,0,0,0,90,false,stim,false,2,53.799999952316284,1,0,2,68822,WMM1,730748,false,false,1117,image-keyboard-response,12
true,6,1,2,0,false,q,true,false,0.0-2.0-0.34-0.312-3.312,0,0,0,90,false,stim,false,2,408.40000009536743,1,0,2,68822,WMM1,732687,false,false,1120,image-keyboard-response,13
true,6,1,2,2,false,d,false,false,0.0-2.0-0.34-0.313-3.313,0,0,0,90,false,stim,true,1,329.7999999523163,1,0,0,68822,WMM1,734542,false,false,1123,image-keyboard-response,14
true,6,1,2,1,true,z,false,false,0.0-2.0-0.34-0.314-3.314,0,0,0,90,false,stim,false,2,133.59999990463257,1,0,1,68822,WMM1,736190,false,true,1126,image-keyboard-response,15
true,6,1,2,1,true,z,false,true,0.0-2.0-0.35-0.315-3.315,0,0,0,90,false,stim,false,2,177.09999990463257,1,0,1,68822,WMM1,737877,false,false,1129,image-keyboard-response,16
true,6,1,2,2,false,d,false,false,0.0-2.0-0.35-0.316-3.316,0,0,0,90,false,stim,true,1,0.0,1,0,0,68822,WMM1,739412,false,false,1132,image-keyboard-response,17
true,6,1,2,2,false,d,false,false,0.0-2.0-0.35-0.317-3.317,0,0,0,90,false,stim,true,1,841.5999999046326,1,0,0,68822,WMM1,741787,false,false,1135,image-keyboard-response,18
true,6,1,2,1,true,z,false,true,0.0-2.0-0.35-0.318-3.318,0,0,0,90,false,stim,false,2,400.7999999523163,1,0,1,68822,WMM1,743713,false,false,1138,image-keyboard-response,19
true,6,1,2,0,false,q,true,false,0.0-2.0-0.35-0.319-3.319,0,0,0,90,false,stim,false,2,32.60000014305115,1,0,2,68822,WMM1,745279,false,false,1141,image-keyboard-response,20
true,6,1,2,0,false,q,true,false,0.0-2.0-0.35-0.320-3.320,0,0,0,90,false,stim,false,2,192.29999995231628,1,0,2,68822,WMM1,747006,false,false,1144,image-keyboard-response,21
true,6,2,2,2,true,d,false,true,0.0-2.0-0.35-0.321-3.321,0,0,0,68,false,stim,false,1,211.10000014305115,1,0,0,68822,WMM1,748735,false,false,1147,image-keyboard-response,22
true,6,2,2,1,false,z,false,false,0.0-2.0-0.35-0.322-3.322,0,0,0,68,false,stim,true,2,35.19999980926514,1,0,1,68822,WMM1,750292,false,false,1150,image-keyboard-response,23
true,6,0,2,0,true,q,false,true,0.0-2.0-0.35-0.323-3.323,0,0,0,81,false,stim,false,2,111.5,1,0,2,68822,WMM1,751926,false,false,1153,image-keyboard-response,24
true,6,1,2,2,false,d,false,false,0.0-2.0-0.36-0.324-3.324,0,0,0,90,false,stim,true,1,120.5,1,0,0,68822,WMM1,753567,false,false,1156,image-keyboard-response,25
true,6,0,2,1,false,z,true,true,0.0-2.0-0.36-0.325-3.325,0,0,0,81,false,stim,false,2,134.5,1,0,1,68822,WMM1,755231,false,true,1159,image-keyboard-response,26
true,6,0,2,2,false,d,true,false,0.0-2.0-0.36-0.326-3.326,0,0,0,81,false,stim,false,1,288.7000000476837,1,0,0,68822,WMM1,757052,false,false,1162,image-keyboard-response,27
true,6,0,2,2,false,d,true,false,0.0-2.0-0.36-0.327-3.327,0,0,0,81,false,stim,false,1,130.70000004768372,1,0,0,68822,WMM1,758711,false,false,1165,image-keyboard-response,28
true,6,1,2,0,false,q,true,false,0.0-2.0-0.36-0.328-3.328,0,0,0,90,false,stim,false,2,337.0,1,0,2,68822,WMM1,760578,false,false,1168,image-keyboard-response,29
true,6,0,2,1,false,z,true,false,0.0-2.0-0.36-0.329-3.329,0,0,0,81,false,stim,false,2,161.5,1,0,1,68822,WMM1,762275,false,false,1171,image-keyboard-response,30
true,6,1,2,0,false,q,true,false,0.0-2.0-0.36-0.330-3.330,0,0,0,90,false,stim,false,2,48.700000047683716,1,0,2,68822,WMM1,763858,false,false,1174,image-keyboard-response,31
true,6,2,2,1,false,z,false,true,0.0-2.0-0.36-0.331-3.331,0,0,0,68,false,stim,true,2,208.29999995231628,1,0,1,68822,WMM1,765605,false,true,1177,image-keyboard-response,32
true,6,2,2,0,false,q,false,false,0.0-2.0-0.36-0.332-3.332,0,0,0,68,false,stim,true,2,40.799999952316284,1,0,2,68822,WMM1,767172,false,false,1180,image-keyboard-response,33
true,6,1,2,2,false,d,false,false,0.0-2.0-0.37-0.333-3.333,0,0,0,90,false,stim,true,1,46.0,1,0,0,68822,WMM1,768731,false,false,1183,image-keyboard-response,34
true,6,2,2,0,false,q,false,false,0.0-2.0-0.37-0.334-3.334,0,0,0,68,false,stim,true,2,95.90000009536743,1,0,2,68822,WMM1,770358,false,false,1186,image-keyboard-response,35
true,6,0,2,2,false,d,true,true,0.0-2.0-0.37-0.335-3.335,0,0,0,81,false,stim,false,1,2.1999998092651367,1,0,0,68822,WMM1,771880,false,true,1189,image-keyboard-response,36
true,6,1,2,1,true,z,false,true,0.0-2.0-0.37-0.336-3.336,0,0,0,90,false,stim,false,2,41.200000047683716,1,0,1,68822,WMM1,773438,false,false,1192,image-keyboard-response,37
true,6,0,2,0,true,q,false,true,0.0-2.0-0.37-0.337-3.337,0,0,0,81,false,stim,false,2,51.700000047683716,1,0,2,68822,WMM1,775015,false,false,1195,image-keyboard-response,38
true,6,1,2,1,true,z,false,true,0.0-2.0-0.37-0.338-3.338,0,0,0,90,false,stim,false,2,170.5,1,0,1,68822,WMM1,776711,false,false,1198,image-keyboard-response,39
true,6,0,2,0,true,q,false,false,0.0-2.0-0.37-0.339-3.339,0,0,0,81,false,stim,false,2,170.69999980926514,1,0,2,68822,WMM1,778428,false,true,1201,image-keyboard-response,40
true,6,0,2,2,false,d,true,false,0.0-2.0-0.37-0.340-3.340,0,0,0,81,false,stim,false,1,101.90000009536743,1,0,0,68822,WMM1,780065,false,false,1204,image-keyboard-response,41
true,6,1,2,1,true,z,false,true,0.0-2.0-0.37-0.341-3.341,0,0,0,90,false,stim,false,2,127.20000004768372,1,0,1,68822,WMM1,781724,false,false,1207,image-keyboard-response,42
true,6,1,2,0,false,q,true,false,0.0-2.0-0.38-0.342-3.342,0,0,0,90,false,stim,false,2,247.09999990463257,1,0,2,68822,WMM1,783495,false,false,1210,image-keyboard-response,43
true,6,1,2,1,true,z,false,false,0.0-2.0-0.38-0.343-3.343,0,0,0,90,false,stim,false,2,322.2000000476837,1,0,1,68822,WMM1,785347,false,true,1213,image-keyboard-response,44
true,6,1,2,1,true,z,false,true,0.0-2.0-0.38-0.344-3.344,0,0,0,90,false,stim,false,2,280.5,1,0,1,68822,WMM1,787144,false,false,1216,image-keyboard-response,45
true,6,1,2,1,true,z,false,false,0.0-2.0-0.38-0.345-3.345,0,0,0,90,false,stim,false,2,157.0,1,0,1,68822,WMM1,788837,false,true,1219,image-keyboard-response,46
true,6,1,2,2,false,d,false,true,0.0-2.0-0.38-0.346-3.346,0,0,0,90,false,stim,true,1,26.200000047683716,1,0,0,68822,WMM1,790397,false,true,1222,image-keyboard-response,47
true,6,1,2,2,false,d,false,false,0.0-2.0-0.38-0.347-3.347,0,0,0,90,false,stim,true,1,307.7999999523163,1,0,0,68822,WMM1,792239,false,false,1225,image-keyboard-response,48
true,6,0,2,0,true,q,false,true,0.0-2.0-0.38-0.348-3.348,0,0,0,81,false,stim,false,2,188.5,1,0,2,68822,WMM1,793953,false,false,1228,image-keyboard-response,49
true,6,1,2,0,false,q,true,false,0.0-2.0-0.38-0.349-3.349,0,0,0,90,false,stim,false,2,157.29999995231628,1,0,2,68822,WMM1,795638,false,false,1231,image-keyboard-response,50
true,6,0,2,2,false,d,true,false,0.0-2.0-0.38-0.350-3.350,0,0,0,81,false,stim,false,1,179.5,1,0,0,68822,WMM1,797344,false,false,1234,image-keyboard-response,51
true,6,1,2,1,true,z,false,true,0.0-2.0-0.39-0.351-3.351,0,0,0,90,false,stim,false,2,224.39999985694885,1,0,1,68822,WMM1,799088,false,false,1237,image-keyboard-response,52
true,6,0,2,0,true,q,false,true,0.0-2.0-0.39-0.352-3.352,0,0,0,81,false,stim,false,2,211.40000009536743,1,0,2,68822,WMM1,800826,false,false,1240,image-keyboard-response,53
true,6,1,2,1,true,z,false,true,0.0-2.0-0.39-0.353-3.353,0,0,0,90,false,stim,false,2,262.7000000476837,1,0,1,68822,WMM1,802610,false,false,1243,image-keyboard-response,54
true,6,0,2,0,true,q,false,true,0.0-2.0-0.39-0.354-3.354,0,0,0,81,false,stim,false,2,361.2000000476837,1,0,2,68822,WMM1,804509,false,false,1246,image-keyboard-response,55
true,6,1,2,2,false,d,false,false,0.0-2.0-0.39-0.355-3.355,0,0,0,90,false,stim,true,1,203.29999995231628,1,0,0,68822,WMM1,806234,false,false,1249,image-keyboard-response,56
true,6,0,2,1,false,z,true,false,0.0-2.0-0.39-0.356-3.356,0,0,0,81,false,stim,false,2,190.70000004768372,1,0,1,68822,WMM1,807955,false,false,1252,image-keyboard-response,57
true,6,1,2,2,false,d,false,false,0.0-2.0-0.39-0.357-3.357,0,0,0,90,false,stim,true,1,1186.8999998569489,1,0,0,68822,WMM1,810668,false,false,1255,image-keyboard-response,58
true,6,1,2,2,false,d,false,false,0.0-2.0-0.39-0.358-3.358,0,0,0,90,false,stim,true,1,19.299999952316284,1,0,0,68822,WMM1,812211,false,false,1258,image-keyboard-response,59
true,6,0,2,0,true,q,false,false,0.0-2.0-0.39-0.359-3.359,0,0,0,81,false,stim,false,2,128.29999995231628,1,0,2,68822,WMM1,813876,false,true,1261,image-keyboard-response,60
true,7,1,4,0,false,q,false,false,0.0-2.0-0.40-0.360-3.360,0,0,0,90,true,stim,true,1,398.7000000476837,1,0,1,68822,WMM1,815796,false,false,1264,image-keyboard-response,1
true,7,0,4,0,true,q,false,true,0.0-2.0-0.40-0.361-3.361,0,0,0,81,false,stim,false,2,233.5,1,0,0,68822,WMM1,817549,false,false,1267,image-keyboard-response,2
true,7,0,4,0,true,q,false,true,0.0-2.0-0.40-0.362-3.362,0,0,0,81,false,stim,false,1,100.60000014305115,1,0,1,68822,WMM1,819181,false,false,1270,image-keyboard-response,3
true,7,0,4,1,false,z,false,false,0.0-2.0-0.40-0.363-3.363,0,0,0,81,false,stim,true,0,82.90000009536743,1,0,2,68822,WMM1,820798,false,false,1273,image-keyboard-response,4
true,7,1,4,1,true,z,false,true,0.0-2.0-0.40-0.364-3.364,0,0,0,90,false,stim,false,0,91.39999985694885,1,0,2,68822,WMM1,822423,false,false,1276,image-keyboard-response,5
true,7,1,4,1,true,z,false,true,0.0-2.0-0.40-0.365-3.365,0,0,0,90,false,stim,false,0,264.5,1,0,2,68822,WMM1,824210,false,false,1279,image-keyboard-response,6
true,7,1,4,0,false,q,false,false,0.0-2.0-0.40-0.366-3.366,0,0,0,90,false,stim,true,1,72.79999995231628,1,0,1,68822,WMM1,825804,false,false,1282,image-keyboard-response,7
true,7,1,4,0,false,q,true,false,0.0-2.0-0.40-0.367-3.367,0,0,0,90,false,stim,false,2,382.40000009536743,1,0,0,68822,WMM1,827714,false,false,1285,image-keyboard-response,8
true,7,1,4,0,false,q,true,false,0.0-2.0-0.40-0.368-3.368,0,0,0,90,false,stim,false,2,569.6000001430511,1,0,0,68822,WMM1,829818,false,false,1288,image-keyboard-response,9
true,7,0,4,1,false,z,false,false,0.0-2.0-0.41-0.369-3.369,0,0,0,81,false,stim,true,0,690.0,1,0,2,68822,WMM1,832022,false,false,1291,image-keyboard-response,10
true,7,1,4,0,false,q,false,false,0.0-2.0-0.41-0.370-3.370,0,0,0,90,false,stim,true,1,133.80000019073486,1,0,1,68822,WMM1,833682,false,false,1294,image-keyboard-response,11
true,7,1,4,0,false,q,true,false,0.0-2.0-0.41-0.371-3.371,0,0,0,90,false,stim,false,2,339.5,1,0,0,68822,WMM1,835538,false,false,1297,image-keyboard-response,12
true,7,0,4,1,false,z,false,false,0.0-2.0-0.41-0.372-3.372,0,0,0,81,false,stim,true,0,223.59999990463257,1,0,2,68822,WMM1,837289,false,false,1300,image-keyboard-response,13
true,7,1,4,0,false,q,false,false,0.0-2.0-0.41-0.373-3.373,0,0,0,90,false,stim,true,1,72.10000014305115,1,0,1,68822,WMM1,838888,false,false,1303,image-keyboard-response,14
true,7,0,4,0,true,q,false,true,0.0-2.0-0.41-0.374-3.374,0,0,0,81,false,stim,false,1,218.70000004768372,1,0,1,68822,WMM1,840634,false,false,1306,image-keyboard-response,15
true,7,0,4,1,false,z,false,false,0.0-2.0-0.41-0.375-3.375,0,0,0,81,false,stim,true,0,89.5,1,0,2,68822,WMM1,842246,false,false,1309,image-keyboard-response,16
true,7,1,4,0,false,q,true,false,0.0-2.0-0.41-0.376-3.376,0,0,0,90,false,stim,false,2,304.89999985694885,1,0,0,68822,WMM1,844086,false,false,1312,image-keyboard-response,17
true,7,1,4,0,false,q,true,false,0.0-2.0-0.41-0.377-3.377,0,0,0,90,false,stim,false,2,46.0,1,0,0,68822,WMM1,845661,false,false,1315,image-keyboard-response,18
true,7,1,4,1,true,z,false,true,0.0-2.0-0.42-0.378-3.378,0,0,0,90,false,stim,false,0,298.40000009536743,1,0,2,68822,WMM1,847468,false,false,1318,image-keyboard-response,19
true,7,1,4,0,false,q,false,false,0.0-2.0-0.42-0.379-3.379,0,0,0,90,false,stim,true,1,163.39999985694885,1,0,1,68822,WMM1,849162,false,false,1321,image-keyboard-response,20
true,7,1,4,0,false,q,false,false,0.0-2.0-0.42-0.380-3.380,0,0,0,90,false,stim,true,1,48.89999985694885,1,0,1,68822,WMM1,850747,false,false,1324,image-keyboard-response,21
true,7,0,4,0,true,q,false,true,0.0-2.0-0.42-0.381-3.381,0,0,0,81,false,stim,false,1,119.70000004768372,1,0,1,68822,WMM1,852394,false,false,1327,image-keyboard-response,22
true,7,0,4,1,false,z,false,false,0.0-2.0-0.42-0.382-3.382,0,0,0,81,false,stim,true,0,194.70000004768372,1,0,2,68822,WMM1,854110,false,false,1330,image-keyboard-response,23
true,7,1,4,0,false,q,true,false,0.0-2.0-0.42-0.383-3.383,0,0,0,90,false,stim,false,2,486.0,1,0,0,68822,WMM1,856125,false,false,1333,image-keyboard-response,24
true,7,1,4,1,true,z,false,true,0.0-2.0-0.42-0.384-3.384,0,0,0,90,false,stim,false,0,244.89999985694885,1,0,2,68822,WMM1,857894,false,false,1336,image-keyboard-response,25
true,7,1,4,0,false,q,true,false,0.0-2.0-0.42-0.385-3.385,0,0,0,90,false,stim,false,2,383.2000000476837,1,0,0,68822,WMM1,859798,false,false,1339,image-keyboard-response,26
true,7,1,4,0,false,q,true,false,0.0-2.0-0.42-0.386-3.386,0,0,0,90,false,stim,false,2,38.89999985694885,1,0,0,68822,WMM1,861354,false,false,1342,image-keyboard-response,27
true,7,0,4,0,true,q,false,false,0.0-2.0-0.43-0.387-3.387,0,0,0,81,false,stim,false,1,224.89999985694885,1,0,1,68822,WMM1,863107,false,true,1345,image-keyboard-response,28
true,7,1,4,0,false,q,false,false,0.0-2.0-0.43-0.388-3.388,0,0,0,90,false,stim,true,1,115.79999995231628,1,0,1,68822,WMM1,864747,false,false,1348,image-keyboard-response,29
true,7,2,4,0,false,q,false,false,0.0-2.0-0.43-0.389-3.389,0,0,0,68,false,stim,true,2,125.89999985694885,1,0,0,68822,WMM1,866408,false,false,1351,image-keyboard-response,30
true,7,2,4,1,false,z,true,false,0.0-2.0-0.43-0.390-3.390,0,0,0,68,false,stim,false,0,2.5999999046325684,1,0,2,68822,WMM1,867935,false,false,1354,image-keyboard-response,31
true,7,2,4,0,false,q,false,false,0.0-2.0-0.43-0.391-3.391,0,0,0,68,false,stim,true,2,201.89999985694885,1,0,0,68822,WMM1,869667,false,false,1357,image-keyboard-response,32
true,7,2,4,0,false,q,true,false,0.0-2.0-0.43-0.392-3.392,0,0,0,68,false,stim,false,1,247.89999985694885,1,0,1,68822,WMM1,871429,false,false,1360,image-keyboard-response,33
true,7,2,4,1,false,z,true,false,0.0-2.0-0.43-0.393-3.393,0,0,0,68,false,stim,false,0,0.20000004768371582,1,0,2,68822,WMM1,872965,false,false,1363,image-keyboard-response,34
true,7,2,4,1,false,z,true,true,0.0-2.0-0.43-0.394-3.394,0,0,0,68,false,stim,false,0,67.39999985694885,1,0,2,68822,WMM1,874552,false,true,1366,image-keyboard-response,35
true,7,1,4,0,false,q,true,false,0.0-2.0-0.43-0.395-3.395,0,0,0,90,false,stim,false,2,711.5,1,0,0,68822,WMM1,876794,false,false,1369,image-keyboard-response,36
true,7,2,4,1,false,z,true,false,0.0-2.0-0.44-0.396-3.396,0,0,0,68,false,stim,false,0,169.59999990463257,1,0,2,68822,WMM1,878503,false,false,1372,image-keyboard-response,37
true,7,0,4,0,true,q,false,true,0.0-2.0-0.44-0.397-3.397,0,0,0,81,false,stim,false,2,163.79999995231628,1,0,0,68822,WMM1,880190,false,false,1375,image-keyboard-response,38
true,7,0,4,1,false,z,false,false,0.0-2.0-0.44-0.398-3.398,0,0,0,81,false,stim,true,0,235.90000009536743,1,0,2,68822,WMM1,881951,false,false,1378,image-keyboard-response,39
true,7,0,4,0,true,q,false,true,0.0-2.0-0.44-0.399-3.399,0,0,0,81,false,stim,false,1,196.29999995231628,1,0,1,68822,WMM1,883673,false,false,1381,image-keyboard-response,40
true,7,0,4,0,true,q,false,true,0.0-2.0-0.44-0.400-3.400,0,0,0,81,false,stim,false,1,73.29999995231628,1,0,1,68822,WMM1,885272,false,false,1384,image-keyboard-response,41
true,7,0,4,0,true,q,false,true,0.0-2.0-0.44-0.401-3.401,0,0,0,81,false,stim,false,2,9.899999856948853,1,0,0,68822,WMM1,886809,false,false,1387,image-keyboard-response,42
true,7,0,4,0,true,q,false,true,0.0-2.0-0.44-0.402-3.402,0,0,0,81,false,stim,false,1,83.79999995231628,1,0,1,68822,WMM1,888416,false,false,1390,image-keyboard-response,43
true,7,0,4,1,false,z,false,false,0.0-2.0-0.44-0.403-3.403,0,0,0,81,false,stim,true,0,0.09999990463256836,1,0,2,68822,WMM1,889949,false,false,1393,image-keyboard-response,44
true,7,1,4,0,false,q,true,false,0.0-2.0-0.44-0.404-3.404,0,0,0,90,false,stim,false,2,141.09999990463257,1,0,0,68822,WMM1,891623,false,false,1396,image-keyboard-response,45
true,7,0,4,1,false,z,false,false,0.0-2.0-0.45-0.405-3.405,0,0,0,81,false,stim,true,0,223.70000004768372,1,0,2,68822,WMM1,893373,false,false,1399,image-keyboard-response,46
true,7,1,4,0,false,q,false,false,0.0-2.0-0.45-0.406-3.406,0,0,0,90,false,stim,true,1,97.30000019073486,1,0,1,68822,WMM1,894996,false,false,1402,image-keyboard-response,47
true,7,0,4,0,true,q,false,true,0.0-2.0-0.45-0.407-3.407,0,0,0,81,false,stim,false,1,62.799999952316284,1,0,1,68822,WMM1,896595,false,false,1405,image-keyboard-response,48
true,7,0,4,0,true,q,false,false,0.0-2.0-0.45-0.408-3.408,0,0,0,81,false,stim,false,2,677.0999999046326,1,0,0,68822,WMM1,898810,false,true,1408,image-keyboard-response,49
true,7,0,4,0,true,q,false,true,0.0-2.0-0.45-0.409-3.409,0,0,0,81,false,stim,false,2,183.70000004768372,1,0,0,68822,WMM1,900533,false,false,1411,image-keyboard-response,50
true,7,0,4,1,false,z,false,false,0.0-2.0-0.45-0.410-3.410,0,0,0,81,false,stim,true,0,60.200000047683716,1,0,2,68822,WMM1,902115,false,false,1414,image-keyboard-response,51
true,7,0,4,0,true,q,false,true,0.0-2.0-0.45-0.411-3.411,0,0,0,81,false,stim,false,1,105.79999995231628,1,0,1,68822,WMM1,903755,false,false,1417,image-keyboard-response,52
true,7,1,4,0,false,q,true,false,0.0-2.0-0.45-0.412-3.412,0,0,0,90,false,stim,false,2,264.7000000476837,1,1,0,68822,WMM1,905547,false,false,1420,image-keyboard-response,53
true,7,0,4,1,false,z,false,false,0.0-2.0-0.45-0.413-3.413,0,0,0,81,false,stim,true,0,286.7999999523163,1,0,2,68822,WMM1,907353,false,false,1423,image-keyboard-response,54
true,7,0,4,1,false,z,false,false,0.0-2.0-0.46-0.414-3.414,0,0,0,81,false,stim,true,0,1233.7000000476837,1,0,2,68822,WMM1,910099,false,false,1426,image-keyboard-response,55
true,7,1,4,1,true,z,false,true,0.0-2.0-0.46-0.415-3.415,0,0,0,90,false,stim,false,0,190.59999990463257,1,0,2,68822,WMM1,911806,false,false,1429,image-keyboard-response,56
true,7,1,4,0,false,q,true,true,0.0-2.0-0.46-0.416-3.416,0,0,0,90,false,stim,false,2,512.3999998569489,1,1,0,68822,WMM1,913845,false,true,1432,image-keyboard-response,57
true,7,1,4,0,false,q,true,false,0.0-2.0-0.46-0.417-3.417,0,0,0,90,false,stim,false,2,164.30000019073486,1,1,0,68822,WMM1,915531,false,false,1435,image-keyboard-response,58
true,7,1,4,0,false,q,true,false,0.0-2.0-0.46-0.418-3.418,0,0,0,90,false,stim,false,2,236.70000004768372,1,1,0,68822,WMM1,917302,false,false,1438,image-keyboard-response,59
true,7,1,4,0,false,q,false,false,0.0-2.0-0.46-0.419-3.419,0,0,0,90,false,stim,true,1,284.7999999523163,1,0,1,68822,WMM1,919117,false,false,1441,image-keyboard-response,60
true,8,1,3,2,false,d,true,false,0.0-2.0-0.46-0.420-3.420,1,0,0,90,true,stim,false,0,254.79999995231628,1,0,1,68822,WMM1,920904,false,false,1444,image-keyboard-response,1
true,8,1,3,2,false,d,false,false,0.0-2.0-0.46-0.421-3.421,1,0,0,90,false,stim,true,1,338.5,1,0,2,68822,WMM1,922771,false,false,1447,image-keyboard-response,2
true,8,1,3,2,false,d,true,false,0.0-2.0-0.46-0.422-3.422,1,0,0,90,false,stim,false,0,81.79999995231628,1,0,1,68822,WMM1,924375,false,false,1450,image-keyboard-response,3
true,8,1,3,2,false,d,false,false,0.0-2.0-0.47-0.423-3.423,1,0,0,90,false,stim,true,1,124.40000009536743,1,0,2,68822,WMM1,926024,false,false,1453,image-keyboard-response,4
true,8,1,3,0,false,q,true,true,0.0-2.0-0.47-0.424-3.424,1,0,0,90,false,stim,false,0,282.90000009536743,1,1,0,68822,WMM1,927831,false,true,1456,image-keyboard-response,5
true,8,1,3,2,false,d,true,false,0.0-2.0-0.47-0.425-3.425,1,0,0,90,false,stim,false,0,35.90000009536743,1,0,1,68822,WMM1,929388,false,false,1459,image-keyboard-response,6
true,8,1,3,2,false,d,true,false,0.0-2.0-0.47-0.426-3.426,1,0,0,90,false,stim,false,0,332.7999999523163,1,0,1,68822,WMM1,931249,false,false,1462,image-keyboard-response,7
true,8,2,3,2,true,d,false,true,0.0-2.0-0.47-0.427-3.427,1,0,0,68,false,stim,false,1,1272.7000000476837,1,0,2,68822,WMM1,934053,false,false,1465,image-keyboard-response,8
true,8,2,3,2,true,d,false,true,0.0-2.0-0.47-0.428-3.428,1,0,0,68,false,stim,false,1,111.20000004768372,1,0,2,68822,WMM1,935694,false,false,1468,image-keyboard-response,9
true,8,0,3,0,true,q,false,true,0.0-2.0-0.47-0.429-3.429,1,0,0,81,false,stim,false,0,534.2999999523163,1,1,0,68822,WMM1,937750,false,false,1471,image-keyboard-response,10
true,8,1,3,2,false,d,true,true,0.0-2.0-0.47-0.430-3.430,1,0,0,90,false,stim,false,0,90.5,1,0,1,68822,WMM1,939374,false,true,1474,image-keyboard-response,11
true,8,0,3,0,true,q,false,true,0.0-2.0-0.47-0.431-3.431,1,0,0,81,false,stim,false,0,166.70000004768372,1,1,0,68822,WMM1,941066,false,false,1477,image-keyboard-response,12
true,8,1,3,0,false,q,true,false,0.0-2.0-0.48-0.432-3.432,1,0,0,90,false,stim,false,0,108.40000009536743,1,1,0,68822,WMM1,942691,false,false,1480,image-keyboard-response,13
true,8,0,3,2,false,d,false,false,0.0-2.0-0.48-0.433-3.433,1,0,0,81,false,stim,true,0,89.5,1,0,1,68822,WMM1,944306,false,false,1483,image-keyboard-response,14
true,8,2,3,2,true,d,false,true,0.0-2.0-0.48-0.434-3.434,1,0,0,68,false,stim,false,1,67.09999990463257,1,0,2,68822,WMM1,945900,false,false,1486,image-keyboard-response,15
true,8,0,3,2,false,d,true,true,0.0-2.0-0.48-0.435-3.435,1,0,0,81,false,stim,false,1,42.299999952316284,1,0,2,68822,WMM1,947475,false,true,1489,image-keyboard-response,16
true,8,2,3,0,false,q,true,false,0.0-2.0-0.48-0.436-3.436,1,0,0,68,false,stim,false,0,103.29999995231628,1,1,0,68822,WMM1,949097,false,false,1492,image-keyboard-response,17
true,8,2,3,2,true,d,false,true,0.0-2.0-0.48-0.437-3.437,1,0,0,68,false,stim,false,0,175.70000004768372,1,0,1,68822,WMM1,950791,false,false,1495,image-keyboard-response,18
true,8,2,3,2,true,d,false,true,0.0-2.0-0.48-0.438-3.438,1,0,0,68,false,stim,false,1,217.20000004768372,1,0,2,68822,WMM1,952534,false,false,1498,image-keyboard-response,19
true,8,2,3,0,false,q,true,false,0.0-2.0-0.48-0.439-3.439,1,0,0,68,false,stim,false,0,225.09999990463257,1,1,0,68822,WMM1,954290,false,false,1501,image-keyboard-response,20
true,8,1,3,2,false,d,true,false,0.0-2.0-0.48-0.440-3.440,1,0,0,90,false,stim,false,0,333.2000000476837,1,0,1,68822,WMM1,956150,false,false,1504,image-keyboard-response,21
true,8,0,3,2,false,d,false,false,0.0-2.0-0.49-0.441-3.441,1,0,0,81,false,stim,true,0,0.19999980926513672,1,0,1,68822,WMM1,957675,false,false,1507,image-keyboard-response,22
true,8,1,3,0,false,q,true,true,0.0-2.0-0.49-0.442-3.442,1,0,0,90,false,stim,false,0,16.200000047683716,1,1,0,68822,WMM1,959216,false,true,1510,image-keyboard-response,23
true,8,0,3,2,false,d,false,false,0.0-2.0-0.49-0.443-3.443,1,0,0,81,false,stim,true,0,244.0,1,0,1,68822,WMM1,960994,false,false,1513,image-keyboard-response,24
true,8,2,3,2,true,d,false,true,0.0-2.0-0.49-0.444-3.444,1,0,0,68,false,stim,false,0,191.89999985694885,1,0,1,68822,WMM1,962709,false,false,1516,image-keyboard-response,25
true,8,2,3,0,false,q,true,false,0.0-2.0-0.49-0.445-3.445,1,0,0,68,false,stim,false,0,21.299999952316284,1,1,0,68822,WMM1,964270,false,false,1519,image-keyboard-response,26
true,8,1,3,2,false,d,false,true,0.0-2.0-0.49-0.446-3.446,1,0,0,90,false,stim,true,1,38.10000014305115,1,0,2,68822,WMM1,965831,false,true,1522,image-keyboard-response,27
true,8,1,3,0,false,q,true,false,0.0-2.0-0.49-0.447-3.447,1,0,0,90,false,stim,false,0,87.0,1,1,0,68822,WMM1,967453,false,false,1525,image-keyboard-response,28
true,8,0,3,2,false,d,true,false,0.0-2.0-0.49-0.448-3.448,1,0,0,81,false,stim,false,1,16.0,1,0,2,68822,WMM1,968999,false,false,1528,image-keyboard-response,29
true,8,1,3,2,false,d,false,false,0.0-2.0-0.49-0.449-3.449,1,0,0,90,false,stim,true,1,29.200000047683716,1,0,2,68822,WMM1,970562,false,false,1531,image-keyboard-response,30
true,8,0,3,0,true,q,false,true,0.0-2.0-0.50-0.450-3.450,1,0,0,81,false,stim,false,0,189.59999990463257,1,1,0,68822,WMM1,972290,false,false,1534,image-keyboard-response,31
true,8,0,3,2,false,d,true,false,0.0-2.0-0.50-0.451-3.451,1,0,0,81,false,stim,false,1,123.89999985694885,1,0,2,68822,WMM1,973941,false,false,1537,image-keyboard-response,32
true,8,0,3,2,false,d,false,false,0.0-2.0-0.50-0.452-3.452,1,0,0,81,false,stim,true,0,26.899999856948853,1,0,1,68822,WMM1,975489,false,false,1540,image-keyboard-response,33
true,8,0,3,0,true,q,false,true,0.0-2.0-0.50-0.453-3.453,1,0,0,81,false,stim,false,0,236.0,1,1,0,68822,WMM1,977251,false,false,1543,image-keyboard-response,34
true,8,0,3,2,false,d,false,false,0.0-2.0-0.50-0.454-3.454,1,0,0,81,false,stim,true,0,151.20000004768372,1,0,1,68822,WMM1,978935,false,false,1546,image-keyboard-response,35
true,8,1,3,2,false,d,false,false,0.0-2.0-0.50-0.455-3.455,1,0,0,90,false,stim,true,1,179.0,1,0,2,68822,WMM1,980646,false,false,1549,image-keyboard-response,36
true,8,0,3,2,false,d,true,true,0.0-2.0-0.50-0.456-3.456,1,0,0,81,false,stim,false,1,110.09999990463257,1,0,2,68822,WMM1,982294,false,true,1552,image-keyboard-response,37
true,8,0,3,2,false,d,false,false,0.0-2.0-0.50-0.457-3.457,1,0,0,81,false,stim,true,0,0.09999990463256836,1,0,1,68822,WMM1,983816,false,false,1555,image-keyboard-response,38
true,8,1,3,0,false,q,true,false,0.0-2.0-0.50-0.458-3.458,1,0,0,90,false,stim,false,0,220.20000004768372,1,1,0,68822,WMM1,985571,false,false,1558,image-keyboard-response,39
true,8,2,3,0,false,q,true,false,0.0-2.0-0.51-0.459-3.459,1,0,0,68,false,stim,false,0,69.80000019073486,1,1,0,68822,WMM1,987170,false,false,1561,image-keyboard-response,40
true,8,0,3,2,false,d,true,false,0.0-2.0-0.51-0.460-3.460,1,0,0,81,false,stim,false,1,217.40000009536743,1,0,2,68822,WMM1,988918,false,false,1564,image-keyboard-response,41
true,8,1,3,2,false,d,true,false,0.0-2.0-0.51-0.461-3.461,1,0,0,90,false,stim,false,0,185.10000014305115,1,0,1,68822,WMM1,990636,false,false,1567,image-keyboard-response,42
true,8,1,3,0,false,q,true,false,0.0-2.0-0.51-0.462-3.462,1,0,0,90,false,stim,false,0,258.7000000476837,1,1,0,68822,WMM1,992414,false,false,1570,image-keyboard-response,43
true,8,0,3,2,false,d,false,false,0.0-2.0-0.51-0.463-3.463,1,0,0,81,false,stim,true,0,206.69999980926514,1,0,1,68822,WMM1,994150,false,false,1573,image-keyboard-response,44
true,8,0,3,0,true,q,false,true,0.0-2.0-0.51-0.464-3.464,1,0,0,81,false,stim,false,0,400.2000000476837,1,1,0,68822,WMM1,996084,false,false,1576,image-keyboard-response,45
true,8,0,3,2,false,d,true,false,0.0-2.0-0.51-0.465-3.465,1,0,0,81,false,stim,false,1,27.700000047683716,1,0,2,68822,WMM1,997640,false,false,1579,image-keyboard-response,46
true,8,0,3,2,false,d,true,false,0.0-2.0-0.51-0.466-3.466,1,0,0,81,false,stim,false,1,273.89999985694885,1,0,2,68822,WMM1,999435,false,false,1582,image-keyboard-response,47
true,8,0,3,2,false,d,false,false,0.0-2.0-0.51-0.467-3.467,1,0,0,81,false,stim,true,0,56.200000047683716,1,0,1,68822,WMM1,1001017,false,false,1585,image-keyboard-response,48
true,8,1,3,2,false,d,false,false,0.0-2.0-0.52-0.468-3.468,1,0,0,90,false,stim,true,1,120.59999990463257,1,0,2,68822,WMM1,1002670,false,false,1588,image-keyboard-response,49
true,8,0,3,0,true,q,false,true,0.0-2.0-0.52-0.469-3.469,1,0,0,81,false,stim,false,0,25.59999990463257,1,1,0,68822,WMM1,1004226,false,false,1591,image-keyboard-response,50
true,8,1,3,2,false,d,false,false,0.0-2.0-0.52-0.470-3.470,1,0,0,90,false,stim,true,1,266.7999999523163,1,0,2,68822,WMM1,1006015,false,false,1594,image-keyboard-response,51
true,8,0,3,0,true,q,false,false,0.0-2.0-0.52-0.471-3.471,1,0,0,81,false,stim,false,0,1.6000001430511475,1,0,0,68822,WMM1,1007553,false,true,1597,image-keyboard-response,52
true,8,1,3,0,false,q,true,true,0.0-2.0-0.52-0.472-3.472,1,0,0,90,false,stim,false,0,138.70000004768372,1,0,0,68822,WMM1,1009223,false,true,1600,image-keyboard-response,53
true,8,0,3,2,false,d,true,false,0.0-2.0-0.52-0.473-3.473,1,0,0,81,false,stim,false,1,35.5,1,0,2,68822,WMM1,1010803,false,false,1603,image-keyboard-response,54
true,8,1,3,2,false,d,true,false,0.0-2.0-0.52-0.474-3.474,1,0,0,90,false,stim,false,0,17.700000047683716,1,0,1,68822,WMM1,1012336,false,false,1606,image-keyboard-response,55
true,8,1,3,2,false,d,true,false,0.0-2.0-0.52-0.475-3.475,1,0,0,90,false,stim,false,0,272.10000014305115,1,0,1,68822,WMM1,1014135,false,false,1609,image-keyboard-response,56
true,8,0,3,2,false,d,false,false,0.0-2.0-0.52-0.476-3.476,1,0,0,81,false,stim,true,0,48.40000009536743,1,0,1,68822,WMM1,1015716,false,false,1612,image-keyboard-response,57
true,8,1,3,2,false,d,false,false,0.0-2.0-0.53-0.477-3.477,1,0,0,90,false,stim,true,1,7.599999904632568,1,0,2,68822,WMM1,1017242,false,false,1615,image-keyboard-response,58
true,8,0,3,2,false,d,false,false,0.0-2.0-0.53-0.478-3.478,1,0,0,81,false,stim,true,0,241.79999995231628,1,0,1,68822,WMM1,1019010,false,false,1618,image-keyboard-response,59
true,8,2,3,2,true,d,false,true,0.0-2.0-0.53-0.479-3.479,1,0,0,68,false,stim,false,1,140.30000019073486,1,0,2,68822,WMM1,1020691,false,false,1621,image-keyboard-response,60
true,9,2,2,1,false,z,false,false,0.0-2.0-0.53-0.480-3.480,0,0,0,68,true,stim,true,2,239.40000009536743,1,0,1,68822,WMM1,1022457,false,false,1624,image-keyboard-response,1
true,9,1,2,2,false,d,true,false,0.0-2.0-0.53-0.481-3.481,0,0,0,90,false,stim,false,0,58.89999985694885,1,0,0,68822,WMM1,1024044,false,false,1627,image-keyboard-response,2
true,9,0,2,2,false,d,false,false,0.0-2.0-0.53-0.482-3.482,0,0,0,81,false,stim,true,0,21.700000047683716,1,0,0,68822,WMM1,1025590,false,false,1630,image-keyboard-response,3
true,9,1,2,1,true,z,false,true,0.0-2.0-0.53-0.483-3.483,0,0,0,90,false,stim,false,2,67.90000009536743,1,0,1,68822,WMM1,1027186,false,false,1633,image-keyboard-response,4
true,9,1,2,2,false,d,true,false,0.0-2.0-0.53-0.484-3.484,0,0,0,90,false,stim,false,0,143.0,1,0,0,68822,WMM1,1028861,false,false,1636,image-keyboard-response,5
true,9,1,2,0,false,q,true,false,0.0-2.0-0.53-0.485-3.485,0,0,0,90,false,stim,false,2,146.40000009536743,1,0,2,68822,WMM1,1030531,false,false,1639,image-keyboard-response,6
true,9,0,2,0,true,q,false,false,0.0-2.0-0.54-0.486-3.486,0,0,0,81,false,stim,false,2,53.799999952316284,1,0,2,68822,WMM1,1032116,false,true,1642,image-keyboard-response,7
true,9,2,2,0,false,q,false,false,0.0-2.0-0.54-0.487-3.487,0,0,0,68,false,stim,true,2,115.5,1,0,2,68822,WMM1,1033767,false,false,1645,image-keyboard-response,8
true,9,1,2,1,true,z,false,true,0.0-2.0-0.54-0.488-3.488,0,0,0,90,false,stim,false,2,165.69999980926514,1,0,1,68822,WMM1,1035468,false,false,1648,image-keyboard-response,9
true,9,0,2,1,false,z,true,false,0.0-2.0-0.54-0.489-3.489,0,0,0,81,false,stim,false,2,3.799999952316284,1,0,1,68822,WMM1,1037005,false,false,1651,image-keyboard-response,10
true,9,1,2,2,false,d,true,false,0.0-2.0-0.54-0.490-3.490,0,0,0,90,false,stim,false,0,76.5,1,0,0,68822,WMM1,1038611,false,false,1654,image-keyboard-response,11
true,9,0,2,0,true,q,false,true,0.0-2.0-0.54-0.491-3.491,0,0,0,81,false,stim,false,2,389.5,1,0,2,68822,WMM1,1040525,false,false,1657,image-keyboard-response,12
true,9,0,2,2,false,d,false,false,0.0-2.0-0.54-0.492-3.492,0,0,0,81,false,stim,true,0,52.10000014305115,1,0,0,68822,WMM1,1042087,false,false,1660,image-keyboard-response,13
true,9,1,2,1,true,z,false,true,0.0-2.0-0.54-0.493-3.493,0,0,0,90,false,stim,false,2,240.20000004768372,1,0,1,68822,WMM1,1043853,false,false,1663,image-keyboard-response,14
true,9,0,2,2,false,d,false,false,0.0-2.0-0.54-0.494-3.494,0,0,0,81,false,stim,true,0,793.8000001907349,1,0,0,68822,WMM1,1046162,false,false,1666,image-keyboard-response,15
true,9,0,2,2,false,d,false,false,0.0-2.0-0.55-0.495-3.495,0,0,0,81,false,stim,true,0,260.19999980926514,1,0,0,68822,WMM1,1047945,false,false,1669,image-keyboard-response,16
true,9,1,2,1,true,z,false,true,0.0-2.0-0.55-0.496-3.496,0,0,0,90,false,stim,false,2,11.200000047683716,1,0,1,68822,WMM1,1049479,false,false,1672,image-keyboard-response,17
true,9,1,2,1,true,z,false,true,0.0-2.0-0.55-0.497-3.497,0,0,0,90,false,stim,false,2,185.5,1,0,1,68822,WMM1,1051187,false,false,1675,image-keyboard-response,18
true,9,1,2,0,false,q,true,false,0.0-2.0-0.55-0.498-3.498,0,0,0,90,false,stim,false,2,422.2999999523163,1,0,2,68822,WMM1,1053141,false,false,1678,image-keyboard-response,19
true,9,0,2,2,false,d,false,false,0.0-2.0-0.55-0.499-3.499,0,0,0,81,false,stim,true,0,382.10000014305115,1,0,0,68822,WMM1,1055051,false,false,1681,image-keyboard-response,20
true,9,2,2,0,false,q,false,false,0.0-2.0-0.55-0.500-3.500,0,0,0,68,false,stim,true,2,352.09999990463257,1,0,2,68822,WMM1,1056937,false,false,1684,image-keyboard-response,21
true,9,2,2,1,false,z,false,false,0.0-2.0-0.55-0.501-3.501,0,0,0,68,false,stim,true,2,148.40000009536743,1,0,1,68822,WMM1,1058617,false,false,1687,image-keyboard-response,22
true,9,1,2,0,false,q,true,false,0.0-2.0-0.55-0.502-3.502,0,0,0,90,false,stim,false,2,143.90000009536743,1,0,2,68822,WMM1,1060295,false,false,1690,image-keyboard-response,23
true,9,1,2,2,false,d,true,true,0.0-2.0-0.55-0.503-3.503,0,0,0,90,false,stim,false,0,131.5,1,0,0,68822,WMM1,1061967,false,true,1693,image-keyboard-response,24
true,9,1,2,1,true,z,false,true,0.0-2.0-0.56-0.504-3.504,0,0,0,90,false,stim,false,2,239.09999990463257,1,0,1,68822,WMM1,1063730,false,false,1696,image-keyboard-response,25
true,9,1,2,0,false,q,true,false,0.0-2.0-0.56-0.505-3.505,0,0,0,90,false,stim,false,2,181.40000009536743,1,0,2,68822,WMM1,1065450,false,false,1699,image-keyboard-response,26
true,9,1,2,0,false,q,true,false,0.0-2.0-0.56-0.506-3.506,0,0,0,90,false,stim,false,2,276.60000014305115,1,0,2,68822,WMM1,1067272,false,false,1702,image-keyboard-response,27
true,9,1,2,2,false,d,true,false,0.0-2.0-0.56-0.507-3.507,0,0,0,90,false,stim,false,0,238.80000019073486,1,0,0,68822,WMM1,1069041,false,false,1705,image-keyboard-response,28
true,9,0,2,2,false,d,false,false,0.0-2.0-0.56-0.508-3.508,0,0,0,81,false,stim,true,0,222.09999990463257,1,0,0,68822,WMM1,1070791,false,false,1708,image-keyboard-response,29
true,9,0,2,0,true,q,false,true,0.0-2.0-0.56-0.509-3.509,0,0,0,81,false,stim,false,2,63.19999980926514,1,0,2,68822,WMM1,1072375,false,false,1711,image-keyboard-response,30
true,9,1,2,1,true,z,false,true,0.0-2.0-0.56-0.510-3.510,0,0,0,90,false,stim,false,2,44.09999990463257,1,0,1,68822,WMM1,1073946,false,false,1714,image-keyboard-response,31
true,9,0,2,2,false,d,false,false,0.0-2.0-0.56-0.511-3.511,0,0,0,81,false,stim,true,0,105.69999980926514,1,0,0,68822,WMM1,1075591,false,false,1717,image-keyboard-response,32
true,9,0,2,1,false,z,true,false,0.0-2.0-0.56-0.512-3.512,0,0,0,81,false,stim,false,2,399.7000000476837,1,0,1,68822,WMM1,1077519,false,false,1720,image-keyboard-response,33
true,9,1,2,1,true,z,false,true,0.0-2.0-0.57-0.513-3.513,0,0,0,90,false,stim,false,2,296.7999999523163,1,0,1,68822,WMM1,1079342,false,false,1723,image-keyboard-response,34
true,9,1,2,0,false,q,true,false,0.0-2.0-0.57-0.514-3.514,0,0,0,90,false,stim,false,2,159.90000009536743,1,0,2,68822,WMM1,1081021,false,false,1726,image-keyboard-response,35
true,9,1,2,0,false,q,true,false,0.0-2.0-0.57-0.515-3.515,0,0,0,90,false,stim,false,2,262.30000019073486,1,0,2,68822,WMM1,1082815,false,false,1729,image-keyboard-response,36
true,9,0,2,1,false,z,true,false,0.0-2.0-0.57-0.516-3.516,0,0,0,81,false,stim,false,2,0.20000004768371582,1,0,1,68822,WMM1,1084352,false,false,1732,image-keyboard-response,37
true,9,1,2,0,false,q,true,false,0.0-2.0-0.57-0.517-3.517,0,0,0,90,false,stim,false,2,219.40000009536743,1,0,2,68822,WMM1,1086104,false,false,1735,image-keyboard-response,38
true,9,1,2,1,true,z,false,true,0.0-2.0-0.57-0.518-3.518,0,0,0,90,false,stim,false,2,125.40000009536743,1,0,1,68822,WMM1,1087753,false,false,1738,image-keyboard-response,39
true,9,1,2,2,false,d,true,false,0.0-2.0-0.57-0.519-3.519,0,0,0,90,false,stim,false,0,529.5,1,0,0,68822,WMM1,1089815,false,false,1741,image-keyboard-response,40
true,9,1,2,2,false,d,true,false,0.0-2.0-0.57-0.520-3.520,0,0,0,90,false,stim,false,0,194.09999990463257,1,0,0,68822,WMM1,1091546,false,false,1744,image-keyboard-response,41
true,9,1,2,2,false,d,true,false,0.0-2.0-0.57-0.521-3.521,0,0,0,90,false,stim,false,0,66.70000004768372,1,0,0,68822,WMM1,1093151,false,false,1747,image-keyboard-response,42
true,9,2,2,1,false,z,false,false,0.0-2.0-0.58-0.522-3.522,0,0,0,68,false,stim,true,2,124.29999995231628,1,0,1,68822,WMM1,1094810,false,false,1750,image-keyboard-response,43
true,9,2,2,2,true,d,false,true,0.0-2.0-0.58-0.523-3.523,0,0,0,68,false,stim,false,0,214.5,1,0,0,68822,WMM1,1096550,false,false,1753,image-keyboard-response,44
true,9,1,2,1,true,z,false,true,0.0-2.0-0.58-0.524-3.524,0,0,0,90,false,stim,false,2,272.40000009536743,1,0,1,68822,WMM1,1098352,false,false,1756,image-keyboard-response,45
true,9,1,2,0,false,q,true,false,0.0-2.0-0.58-0.525-3.525,0,0,0,90,false,stim,false,2,136.20000004768372,1,0,2,68822,WMM1,1100022,false,false,1759,image-keyboard-response,46
true,9,1,2,2,false,d,true,false,0.0-2.0-0.58-0.526-3.526,0,0,0,90,false,stim,false,0,141.79999995231628,1,0,0,68822,WMM1,1101694,false,false,1762,image-keyboard-response,47
true,9,1,2,0,false,q,true,false,0.0-2.0-0.58-0.527-3.527,0,0,0,90,false,stim,false,2,136.20000004768372,1,0,2,68822,WMM1,1103372,false,false,1765,image-keyboard-response,48
true,9,2,2,0,false,q,false,false,0.0-2.0-0.58-0.528-3.528,0,0,0,68,false,stim,true,2,13.799999952316284,1,0,2,68822,WMM1,1104916,false,false,1768,image-keyboard-response,49
true,9,0,2,1,false,z,true,false,0.0-2.0-0.58-0.529-3.529,0,0,0,81,false,stim,false,2,59.19999980926514,1,0,1,68822,WMM1,1106495,false,false,1771,image-keyboard-response,50
true,9,0,2,2,false,d,false,true,0.0-2.0-0.58-0.530-3.530,0,0,0,81,false,stim,true,0,205.79999995231628,1,0,0,68822,WMM1,1108242,false,true,1774,image-keyboard-response,51
true,9,0,2,0,true,q,false,true,0.0-2.0-0.59-0.531-3.531,0,0,0,81,false,stim,false,2,97.10000014305115,1,0,2,68822,WMM1,1109883,false,false,1777,image-keyboard-response,52
true,9,2,2,2,true,d,false,true,0.0-2.0-0.59-0.532-3.532,0,0,0,68,false,stim,false,0,8.400000095367432,1,0,0,68822,WMM1,1111427,false,false,1780,image-keyboard-response,53
true,9,0,2,0,true,q,false,true,0.0-2.0-0.59-0.533-3.533,0,0,0,81,false,stim,false,2,374.10000014305115,1,0,2,68822,WMM1,1113326,false,false,1783,image-keyboard-response,54
true,9,0,2,1,false,z,true,false,0.0-2.0-0.59-0.534-3.534,0,0,0,81,false,stim,false,2,546.4000000953674,1,0,1,68822,WMM1,1115399,false,false,1786,image-keyboard-response,55
true,9,1,2,0,false,q,true,false,0.0-2.0-0.59-0.535-3.535,0,0,0,90,false,stim,false,2,1105.2999999523163,1,0,2,68822,WMM1,1118035,false,false,1789,image-keyboard-response,56
true,9,1,2,2,false,d,true,false,0.0-2.0-0.59-0.536-3.536,0,0,0,90,false,stim,false,0,48.200000047683716,1,0,0,68822,WMM1,1119618,false,false,1792,image-keyboard-response,57
true,9,0,2,1,false,z,true,true,0.0-2.0-0.59-0.537-3.537,0,0,0,81,false,stim,false,2,247.59999990463257,1,0,1,68822,WMM1,1121395,false,true,1795,image-keyboard-response,58
true,9,0,2,2,false,d,false,false,0.0-2.0-0.59-0.538-3.538,0,0,0,81,false,stim,true,0,60.299999952316284,1,0,0,68822,WMM1,1122979,false,false,1798,image-keyboard-response,59
true,9,2,2,1,false,z,false,false,0.0-2.0-0.59-0.539-3.539,0,0,0,68,false,stim,true,2,117.09999990463257,1,0,1,68822,WMM1,1124635,false,false,1801,image-keyboard-response,60
true,10,1,1,2,false,d,true,false,0.0-2.0-0.60-0.540-3.540,0,0,0,90,true,stim,false,0,84.5,1,0,2,68822,WMM1,1126254,false,false,1804,image-keyboard-response,1
true,10,0,1,2,false,d,false,false,0.0-2.0-0.60-0.541-3.541,0,0,0,81,false,stim,true,0,442.40000009536743,1,0,2,68822,WMM1,1128228,false,false,1807,image-keyboard-response,2
true,10,1,1,0,false,q,false,false,0.0-2.0-0.60-0.542-3.542,0,0,0,90,false,stim,true,1,23.59999990463257,1,0,1,68822,WMM1,1129776,false,false,1810,image-keyboard-response,3
true,10,0,1,2,false,d,false,false,0.0-2.0-0.60-0.543-3.543,0,0,0,81,false,stim,true,0,115.29999995231628,1,0,2,68822,WMM1,1131412,false,false,1813,image-keyboard-response,4
true,10,0,1,0,true,q,false,true,0.0-2.0-0.60-0.544-3.544,0,0,0,81,false,stim,false,2,102.20000004768372,1,0,0,68822,WMM1,1133038,false,false,1816,image-keyboard-response,5
true,10,0,1,0,true,q,false,true,0.0-2.0-0.60-0.545-3.545,0,0,0,81,false,stim,false,1,179.70000004768372,1,0,1,68822,WMM1,1134732,false,false,1819,image-keyboard-response,6
true,10,0,1,0,true,q,false,true,0.0-2.0-0.60-0.546-3.546,0,0,0,81,false,stim,false,2,235.0,1,0,0,68822,WMM1,1136492,false,false,1822,image-keyboard-response,7
true,10,0,1,0,true,q,false,true,0.0-2.0-0.60-0.547-3.547,0,0,0,81,false,stim,false,2,299.39999985694885,1,0,0,68822,WMM1,1138319,false,false,1825,image-keyboard-response,8
true,10,2,1,0,false,q,true,false,0.0-2.0-0.60-0.548-3.548,0,0,0,68,false,stim,false,1,343.2000000476837,1,0,1,68822,WMM1,1140196,false,false,1828,image-keyboard-response,9
true,10,0,1,2,false,d,false,false,0.0-2.0-0.61-0.549-3.549,0,0,0,81,false,stim,true,0,252.59999990463257,1,0,2,68822,WMM1,1141972,false,false,1831,image-keyboard-response,10
true,10,1,1,0,false,q,false,false,0.0-2.0-0.61-0.550-3.550,0,0,0,90,false,stim,true,1,375.40000009536743,1,0,1,68822,WMM1,1143878,false,false,1834,image-keyboard-response,11
true,10,1,1,2,false,d,true,false,0.0-2.0-0.61-0.551-3.551,0,0,0,90,false,stim,false,0,489.2999999523163,1,0,2,68822,WMM1,1145892,false,false,1837,image-keyboard-response,12
true,10,0,1,0,true,q,false,true,0.0-2.0-0.61-0.552-3.552,0,0,0,81,false,stim,false,2,71.5,1,0,0,68822,WMM1,1147487,false,false,1840,image-keyboard-response,13
true,10,1,1,0,false,q,false,false,0.0-2.0-0.61-0.553-3.553,0,0,0,90,false,stim,true,1,261.0,1,0,1,68822,WMM1,1149280,false,false,1843,image-keyboard-response,14
true,10,0,1,0,true,q,false,true,0.0-2.0-0.61-0.554-3.554,0,0,0,81,false,stim,false,1,105.5,1,0,1,68822,WMM1,1150916,false,false,1846,image-keyboard-response,15
true,10,0,1,0,true,q,false,true,0.0-2.0-0.61-0.555-3.555,0,0,0,81,false,stim,false,2,104.39999985694885,1,0,0,68822,WMM1,1152547,false,false,1849,image-keyboard-response,16
true,10,0,1,2,false,d,false,true,0.0-2.0-0.61-0.556-3.556,0,0,0,81,false,stim,true,0,64.09999990463257,1,0,2,68822,WMM1,1154147,false,true,1852,image-keyboard-response,17
true,10,0,1,0,true,q,false,true,0.0-2.0-0.61-0.557-3.557,0,0,0,81,false,stim,false,2,39.5,1,0,0,68822,WMM1,1155707,false,false,1855,image-keyboard-response,18
true,10,1,1,2,false,d,true,false,0.0-2.0-0.62-0.558-3.558,0,0,0,90,false,stim,false,0,124.0,1,0,2,68822,WMM1,1157355,false,false,1858,image-keyboard-response,19
true,10,0,1,0,true,q,false,true,0.0-2.0-0.62-0.559-3.559,0,0,0,81,false,stim,false,2,19.600000143051147,1,0,0,68822,WMM1,1158902,false,false,1861,image-keyboard-response,20
true,10,0,1,0,true,q,false,true,0.0-2.0-0.62-0.560-3.560,0,0,0,81,false,stim,false,1,1259.9000000953674,1,0,1,68822,WMM1,1161695,false,false,1864,image-keyboard-response,21
true,10,0,1,0,true,q,false,true,0.0-2.0-0.62-0.561-3.561,0,0,0,81,false,stim,false,2,28.0,1,0,0,68822,WMM1,1163247,false,false,1867,image-keyboard-response,22
true,10,0,1,0,true,q,false,true,0.0-2.0-0.62-0.562-3.562,0,0,0,81,false,stim,false,2,82.09999990463257,1,0,0,68822,WMM1,1164857,false,false,1870,image-keyboard-response,23
true,10,0,1,0,true,q,false,true,0.0-2.0-0.62-0.563-3.563,0,0,0,81,false,stim,false,1,217.0,1,0,1,68822,WMM1,1166603,false,false,1873,image-keyboard-response,24
true,10,0,1,2,false,d,false,false,0.0-2.0-0.62-0.564-3.564,0,0,0,81,false,stim,true,0,222.19999980926514,1,0,2,68822,WMM1,1168355,false,false,1876,image-keyboard-response,25
true,10,1,1,2,false,d,true,false,0.0-2.0-0.62-0.565-3.565,0,0,0,90,false,stim,false,0,119.39999985694885,1,0,2,68822,WMM1,1170005,false,false,1879,image-keyboard-response,26
true,10,0,1,0,true,q,false,true,0.0-2.0-0.62-0.566-3.566,0,0,0,81,false,stim,false,1,29.5,1,0,1,68822,WMM1,1171566,false,false,1882,image-keyboard-response,27
true,10,1,1,2,false,d,true,false,0.0-2.0-0.63-0.567-3.567,0,0,0,90,false,stim,false,0,167.60000014305115,1,0,2,68822,WMM1,1173267,false,false,1885,image-keyboard-response,28
true,10,0,1,0,true,q,false,true,0.0-2.0-0.63-0.568-3.568,0,0,0,81,false,stim,false,2,152.10000014305115,1,0,0,68822,WMM1,1174949,false,false,1888,image-keyboard-response,29
true,10,1,1,0,false,q,true,false,0.0-2.0-0.63-0.569-3.569,0,0,0,90,false,stim,false,2,36.299999952316284,1,0,0,68822,WMM1,1176522,false,false,1891,image-keyboard-response,30
true,10,0,1,0,true,q,false,true,0.0-2.0-0.63-0.570-3.570,0,0,0,81,false,stim,false,1,123.30000019073486,1,0,1,68822,WMM1,1178177,false,false,1894,image-keyboard-response,31
true,10,2,1,2,true,d,false,true,0.0-2.0-0.63-0.571-3.571,0,0,0,68,false,stim,false,0,7.700000047683716,1,0,2,68822,WMM1,1179726,false,false,1897,image-keyboard-response,32
true,10,0,1,0,true,q,false,true,0.0-2.0-0.63-0.572-3.572,0,0,0,81,false,stim,false,2,221.69999980926514,1,0,0,68822,WMM1,1181469,false,false,1900,image-keyboard-response,33
true,10,1,1,0,false,q,false,true,0.0-2.0-0.63-0.573-3.573,0,0,0,90,false,stim,true,1,170.20000004768372,1,0,1,68822,WMM1,1183190,false,true,1903,image-keyboard-response,34
true,10,0,1,2,false,d,false,false,0.0-2.0-0.63-0.574-3.574,0,0,0,81,false,stim,true,0,84.10000014305115,1,0,2,68822,WMM1,1184809,false,false,1906,image-keyboard-response,35
true,10,1,1,0,false,q,false,false,0.0-2.0-0.63-0.575-3.575,0,0,0,90,false,stim,true,1,41.59999990463257,1,0,1,68822,WMM1,1186378,false,false,1909,image-keyboard-response,36
true,10,0,1,2,false,d,false,false,0.0-2.0-0.64-0.576-3.576,0,0,0,81,false,stim,true,0,169.59999990463257,1,0,2,68822,WMM1,1188091,false,false,1912,image-keyboard-response,37
true,10,0,1,0,true,q,false,false,0.0-2.0-0.64-0.577-3.577,0,0,0,81,false,stim,false,2,199.5,1,0,0,68822,WMM1,1189819,false,true,1915,image-keyboard-response,38
true,10,1,1,2,false,d,true,false,0.0-2.0-0.64-0.578-3.578,0,0,0,90,false,stim,false,0,12.700000047683716,1,0,2,68822,WMM1,1191366,false,false,1918,image-keyboard-response,39
true,10,0,1,0,true,q,false,true,0.0-2.0-0.64-0.579-3.579,0,0,0,81,false,stim,false,2,166.40000009536743,1,0,0,68822,WMM1,1193061,false,false,1921,image-keyboard-response,40
true,10,1,1,0,false,q,false,false,0.0-2.0-0.64-0.580-3.580,0,0,0,90,false,stim,true,1,69.40000009536743,1,0,1,68822,WMM1,1194673,false,false,1924,image-keyboard-response,41
true,10,0,1,0,true,q,false,true,0.0-2.0-0.64-0.581-3.581,0,0,0,81,false,stim,false,1,62.59999990463257,1,0,1,68822,WMM1,1196262,false,false,1927,image-keyboard-response,42
true,10,0,1,2,false,d,false,false,0.0-2.0-0.64-0.582-3.582,0,0,0,81,false,stim,true,0,101.60000014305115,1,0,2,68822,WMM1,1197897,false,false,1930,image-keyboard-response,43
true,10,1,1,0,false,q,true,false,0.0-2.0-0.64-0.583-3.583,0,0,0,90,false,stim,false,2,38.799999952316284,1,0,0,68822,WMM1,1199476,false,false,1933,image-keyboard-response,44
true,10,0,1,0,true,q,false,true,0.0-2.0-0.64-0.584-3.584,0,0,0,81,false,stim,false,1,16.90000009536743,1,0,1,68822,WMM1,1201018,false,false,1936,image-keyboard-response,45
true,10,1,1,2,false,d,true,false,0.0-2.0-0.65-0.585-3.585,0,0,0,90,false,stim,false,0,165.09999990463257,1,0,2,68822,WMM1,1202717,false,false,1939,image-keyboard-response,46
true,10,0,1,0,true,q,false,true,0.0-2.0-0.65-0.586-3.586,0,0,0,81,false,stim,false,1,153.10000014305115,1,0,1,68822,WMM1,1204396,false,false,1942,image-keyboard-response,47
true,10,0,1,0,true,q,false,true,0.0-2.0-0.65-0.587-3.587,0,0,0,81,false,stim,false,1,139.69999980926514,1,0,1,68822,WMM1,1206078,false,false,1945,image-keyboard-response,48
true,10,0,1,2,false,d,false,false,0.0-2.0-0.65-0.588-3.588,0,0,0,81,false,stim,true,0,83.70000004768372,1,0,2,68822,WMM1,1207702,false,false,1948,image-keyboard-response,49
true,10,0,1,0,true,q,false,true,0.0-2.0-0.65-0.589-3.589,0,0,0,81,false,stim,false,1,22.5,1,0,1,68822,WMM1,1209260,false,false,1951,image-keyboard-response,50
true,10,1,1,0,false,q,true,false,0.0-2.0-0.65-0.590-3.590,0,0,0,90,false,stim,false,2,5.699999809265137,1,0,0,68822,WMM1,1210793,false,false,1954,image-keyboard-response,51
true,10,0,1,0,true,q,false,true,0.0-2.0-0.65-0.591-3.591,0,0,0,81,false,stim,false,2,172.0,1,0,0,68822,WMM1,1212492,false,false,1957,image-keyboard-response,52
true,10,1,1,0,false,q,true,false,0.0-2.0-0.65-0.592-3.592,0,0,0,90,false,stim,false,2,148.79999995231628,1,0,0,68822,WMM1,1214168,false,false,1960,image-keyboard-response,53
