answered,blockNum,choice,condition,corResp,correct,correct_response,explo,fb,internal_node_id,isStable_1,isStable_2,isStable_3,key_press,newBlock,part,persev,persevResp,rt,sessNum,stableAS,stimulus,subject,task,time_elapsed,training,trap,trial_index,trial_type,trialsInBlock
true,1,2,0,1,false,z,true,false,0.0-2.0-0.0-0.0-3.0,0,0,0,68,true,stim,false,-1,1653.3550000749528,0,0,2,68822,WMM1,376363,false,false,168,image-keyboard-response,1
true,1,1,0,1,true,z,false,true,0.0-2.0-0.0-0.1-3.1,0,0,0,90,false,stim,false,-1,821.085000410676,0,0,2,68822,WMM1,378699,false,false,171,image-keyboard-response,2
true,1,0,0,0,true,q,false,true,0.0-2.0-0.0-0.2-3.2,0,0,0,81,false,stim,false,-1,971.8150002881885,0,0,0,68822,WMM1,381190,false,false,174,image-keyboard-response,3
true,1,1,0,1,true,z,false,true,0.0-2.0-0.0-0.3-3.3,0,0,0,90,false,stim,false,-1,2865.0799999013543,0,0,1,68822,WMM1,385566,false,false,177,image-keyboard-response,4
true,1,1,0,1,true,z,false,true,0.0-2.0-0.0-0.4-3.4,0,0,0,90,false,stim,false,-1,758.0699999816716,0,0,1,68822,WMM1,387858,false,false,180,image-keyboard-response,5
true,1,2,0,1,false,z,true,false,0.0-2.0-0.0-0.5-3.5,0,0,0,68,false,stim,false,-1,1175.77000008896,0,0,2,68822,WMM1,390557,false,false,183,image-keyboard-response,6
true,1,0,0,0,true,q,false,true,0.0-2.0-0.0-0.6-3.6,0,0,0,81,false,stim,false,-1,1385.5400001630187,0,0,0,68822,WMM1,393458,false,false,186,image-keyboard-response,7
true,1,1,0,1,true,z,false,true,0.0-2.0-0.0-0.7-3.7,0,0,0,90,false,stim,false,-1,751.674999948591,0,0,1,68822,WMM1,395745,false,false,189,image-keyboard-response,8
true,1,0,0,0,true,q,false,true,0.0-2.0-0.0-0.8-3.8,0,0,0,81,false,stim,false,-1,1137.640000320971,0,0,0,68822,WMM1,398397,false,false,192,image-keyboard-response,9
true,1,1,0,1,true,z,false,true,0.0-2.0-0.1-0.9-3.9,0,0,0,90,false,stim,false,-1,637.555000372231,0,0,1,68822,WMM1,400554,false,false,195,image-keyboard-response,10
true,1,0,0,1,false,z,true,false,0.0-2.0-0.1-0.10-3.10,0,0,0,81,false,stim,false,-1,574.8049998655915,0,0,1,68822,WMM1,402662,false,false,198,image-keyboard-response,11
true,1,1,0,1,true,z,false,true,0.0-2.0-0.1-0.11-3.11,0,0,0,90,false,stim,false,-1,746.199999935925,0,0,2,68822,WMM1,404934,false,false,201,image-keyboard-response,12
true,1,0,0,0,true,q,false,true,0.0-2.0-0.1-0.12-3.12,0,0,0,81,false,stim,false,-1,1032.8250001184642,0,0,0,68822,WMM1,407482,false,false,204,image-keyboard-response,13
true,1,1,0,1,true,z,false,true,0.0-2.0-0.1-0.13-3.13,0,0,0,90,false,stim,false,-1,933.2849998027086,0,0,2,68822,WMM1,409947,false,false,207,image-keyboard-response,14
true,1,0,0,0,true,q,false,true,0.0-2.0-0.1-0.14-3.14,0,0,0,81,false,stim,false,-1,1990.0799999013543,0,0,0,68822,WMM1,413456,false,false,210,image-keyboard-response,15
true,1,0,0,0,true,q,false,true,0.0-2.0-0.1-0.15-3.15,0,0,0,81,false,stim,false,-1,1033.5849998518825,0,0,0,68822,WMM1,416008,false,false,213,image-keyboard-response,16
true,1,1,0,1,true,z,false,true,0.0-2.0-0.1-0.16-3.16,0,0,0,90,false,stim,false,-1,793.2899999432266,0,0,1,68822,WMM1,418329,false,false,216,image-keyboard-response,17
true,1,1,0,1,true,z,false,true,0.0-2.0-0.1-0.17-3.17,0,0,0,90,false,stim,false,-1,1408.6750000715256,0,0,2,68822,WMM1,421260,false,false,219,image-keyboard-response,18
true,1,1,0,1,true,z,false,true,0.0-2.0-0.2-0.18-3.18,0,0,0,90,false,stim,false,-1,1750.3149998374283,0,0,2,68822,WMM1,424529,false,false,222,image-keyboard-response,19
true,1,1,0,1,true,z,false,true,0.0-2.0-0.2-0.19-3.19,0,0,0,90,false,stim,false,-1,1004.250000230968,0,0,2,68822,WMM1,427047,false,false,225,image-keyboard-response,20
true,1,1,0,1,true,z,false,true,0.0-2.0-0.2-0.20-3.20,0,0,0,90,false,stim,false,-1,2514.814999885857,0,0,1,68822,WMM1,431099,false,false,228,image-keyboard-response,21
true,1,1,0,1,true,z,false,true,0.0-2.0-0.2-0.21-3.21,0,0,0,90,false,stim,false,-1,1697.3149999976158,0,0,2,68822,WMM1,434332,false,false,231,image-keyboard-response,22
true,1,0,0,0,true,q,false,true,0.0-2.0-0.2-0.22-3.22,0,0,0,81,false,stim,false,-1,1127.220000140369,0,0,0,68822,WMM1,436971,false,false,234,image-keyboard-response,23
true,1,1,0,1,true,z,false,true,0.0-2.0-0.2-0.23-3.23,0,0,0,90,false,stim,false,-1,716.1850002594292,0,0,1,68822,WMM1,439221,false,false,237,image-keyboard-response,24
true,1,1,0,1,true,z,false,true,0.0-2.0-0.2-0.24-3.24,0,0,0,90,false,stim,false,-1,522.8300001472235,0,0,1,68822,WMM1,441266,false,false,240,image-keyboard-response,25
true,1,0,0,0,true,q,false,true,0.0-2.0-0.2-0.25-3.25,0,0,0,81,false,stim,false,-1,854.9200003035367,0,0,0,68822,WMM1,443642,false,false,243,image-keyboard-response,26
true,1,1,0,0,false,q,true,false,0.0-2.0-0.2-0.26-3.26,0,0,0,90,false,stim,false,-1,792.4199998378754,0,0,0,68822,WMM1,445955,false,false,246,image-keyboard-response,27
true,1,1,0,1,true,z,false,true,0.0-2.0-0.3-0.27-3.27,0,0,0,90,false,stim,false,-1,1583.5299999453127,0,0,2,68822,WMM1,449076,false,false,249,image-keyboard-response,28
true,1,0,0,0,true,q,false,true,0.0-2.0-0.3-0.28-3.28,0,0,0,81,false,stim,false,-1,427.87500005215406,0,0,0,68822,WMM1,451025,false,false,252,image-keyboard-response,29
true,1,1,0,1,true,z,false,true,0.0-2.0-0.3-0.29-3.29,0,0,0,90,false,stim,false,-1,962.0949998497963,0,0,2,68822,WMM1,453499,false,false,255,image-keyboard-response,30
true,1,0,0,0,true,q,false,true,0.0-2.0-0.3-0.30-3.30,0,0,0,81,false,stim,false,-1,731.3350001350045,0,0,0,68822,WMM1,455751,false,false,258,image-keyboard-response,31
true,2,0,1,2,false,d,false,false,0.0-2.0-0.3-0.31-3.31,0,0,0,81,true,stim,true,0,764.554999768734,0,0,0,68822,WMM1,458048,false,false,261,image-keyboard-response,1
true,2,1,1,0,false,q,false,false,0.0-2.0-0.3-0.32-3.32,0,0,0,90,false,stim,true,1,1400.6099998950958,0,0,2,68822,WMM1,460979,false,false,264,image-keyboard-response,2
true,2,1,1,0,false,q,false,true,0.0-2.0-0.3-0.33-3.33,0,0,0,90,false,stim,true,1,902.2450000047684,0,0,1,68822,WMM1,463415,false,true,267,image-keyboard-response,3
true,2,1,1,0,false,q,false,false,0.0-2.0-0.3-0.34-3.34,0,0,0,90,false,stim,true,1,954.450000077486,0,0,1,68822,WMM1,465901,false,false,270,image-keyboard-response,4
true,2,0,1,0,true,q,false,true,0.0-2.0-0.3-0.35-3.35,0,0,0,81,false,stim,false,1,2912.8650003112853,0,0,1,68822,WMM1,470336,false,false,273,image-keyboard-response,5
false,2,-1,1,0,false,q,true,true,0.0-2.0-0.4-0.36-3.36,0,0,0,,false,stim,false,1,,0,0,2,68822,WMM1,474863,false,true,276,image-keyboard-response,6
true,2,1,1,0,false,q,false,false,0.0-2.0-0.4-0.37-3.37,0,0,0,90,false,stim,true,1,1301.8499999307096,0,0,2,68822,WMM1,477685,false,false,279,image-keyboard-response,7
true,2,1,1,0,false,q,false,false,0.0-2.0-0.4-0.38-3.38,0,0,0,90,false,stim,true,1,2212.735000066459,0,0,1,68822,WMM1,481422,false,false,282,image-keyboard-response,8
true,2,2,1,0,false,q,true,false,0.0-2.0-0.4-0.39-3.39,0,0,0,68,false,stim,false,1,649.5799999684095,0,0,2,68822,WMM1,483584,false,false,285,image-keyboard-response,9
true,2,0,1,2,false,d,false,false,0.0-2.0-0.4-0.40-3.40,0,0,0,81,false,stim,true,0,736.4800004288554,0,0,0,68822,WMM1,485846,false,false,288,image-keyboard-response,10
true,2,1,1,0,false,q,false,false,0.0-2.0-0.4-0.41-3.41,0,0,0,90,false,stim,true,1,770.3300002031028,0,0,1,68822,WMM1,488137,false,false,291,image-keyboard-response,11
true,2,2,1,2,true,d,false,true,0.0-2.0-0.4-0.42-3.42,0,0,0,68,false,stim,false,0,1280.560000333935,0,0,0,68822,WMM1,490943,false,false,294,image-keyboard-response,12
true,2,2,1,0,false,q,true,false,0.0-2.0-0.4-0.43-3.43,0,0,0,68,false,stim,false,1,1465.0099999271333,0,0,1,68822,WMM1,493919,false,false,297,image-keyboard-response,13
true,2,0,1,2,false,d,false,false,0.0-2.0-0.4-0.44-3.44,0,0,0,81,false,stim,true,0,1848.4550002031028,0,0,0,68822,WMM1,497298,false,false,300,image-keyboard-response,14
true,2,1,1,0,false,q,false,false,0.0-2.0-0.5-0.45-3.45,0,0,0,90,false,stim,true,1,341.9650001451373,0,0,1,68822,WMM1,499161,false,false,303,image-keyboard-response,15
true,2,1,1,0,false,q,false,false,0.0-2.0-0.5-0.46-3.46,0,0,0,90,false,stim,true,1,751.0649999603629,0,0,2,68822,WMM1,501447,false,false,306,image-keyboard-response,16
true,2,1,1,2,false,d,true,false,0.0-2.0-0.5-0.47-3.47,0,0,0,90,false,stim,false,0,938.1099999882281,0,0,0,68822,WMM1,503920,false,false,309,image-keyboard-response,17
true,2,2,1,0,false,q,true,false,0.0-2.0-0.5-0.48-3.48,0,0,0,68,false,stim,false,1,985.540000256151,0,0,1,68822,WMM1,506439,false,false,312,image-keyboard-response,18
true,2,0,1,0,true,q,false,true,0.0-2.0-0.5-0.49-3.49,0,0,0,81,false,stim,false,1,1469.0750003792346,0,0,2,68822,WMM1,509424,false,false,315,image-keyboard-response,19
true,2,0,1,0,true,q,false,true,0.0-2.0-0.5-0.50-3.50,0,0,0,81,false,stim,false,1,1155.0000002607703,0,0,2,68822,WMM1,512112,false,false,318,image-keyboard-response,20
true,2,1,1,2,false,d,true,false,0.0-2.0-0.5-0.51-3.51,0,0,0,90,false,stim,false,0,1680.3350001573563,0,0,0,68822,WMM1,515319,false,false,321,image-keyboard-response,21
true,2,2,1,2,true,d,false,true,0.0-2.0-0.5-0.52-3.52,0,0,0,68,false,stim,false,0,739.6049997769296,0,0,0,68822,WMM1,517582,false,false,324,image-keyboard-response,22
true,2,0,1,0,true,q,false,true,0.0-2.0-0.5-0.53-3.53,0,0,0,81,false,stim,false,1,1640.1400002650917,0,0,1,68822,WMM1,520744,false,false,327,image-keyboard-response,23
true,2,2,1,0,false,q,true,true,0.0-2.0-0.6-0.54-3.54,0,0,0,68,false,stim,false,1,819.7749997489154,0,0,2,68822,WMM1,523097,false,true,330,image-keyboard-response,24
true,2,2,1,2,true,d,false,true,0.0-2.0-0.6-0.55-3.55,0,0,0,68,false,stim,false,0,2304.2600001208484,0,0,0,68822,WMM1,526912,false,false,333,image-keyboard-response,25
true,2,2,1,0,false,q,true,true,0.0-2.0-0.6-0.56-3.56,0,0,0,68,false,stim,false,1,1201.815000269562,0,0,1,68822,WMM1,529651,false,true,336,image-keyboard-response,26
true,2,2,1,0,false,q,true,false,0.0-2.0-0.6-0.57-3.57,0,0,0,68,false,stim,false,1,2763.829999603331,0,0,2,68822,WMM1,533945,false,false,339,image-keyboard-response,27
true,2,2,1,0,false,q,true,false,0.0-2.0-0.6-0.58-3.58,0,0,0,68,false,stim,false,1,927.2699998691678,0,0,1,68822,WMM1,536394,false,false,342,image-keyboard-response,28
true,2,1,1,0,false,q,false,false,0.0-2.0-0.6-0.59-3.59,0,0,0,90,false,stim,true,1,2652.8750001452863,0,0,2,68822,WMM1,540556,false,false,345,image-keyboard-response,29
true,2,0,1,0,true,q,false,true,0.0-2.0-0.6-0.60-3.60,0,0,0,81,false,stim,false,1,947.549999691546,0,0,1,68822,WMM1,543024,false,false,348,image-keyboard-response,30
false,2,-1,1,2,false,d,true,false,0.0-2.0-0.6-0.61-3.61,0,0,0,,false,stim,false,0,,0,0,0,68822,WMM1,547562,false,false,351,image-keyboard-response,31
true,2,2,1,2,true,d,false,false,0.0-2.0-0.6-0.62-3.62,0,0,0,68,false,stim,false,0,405.55999986827374,0,0,0,68822,WMM1,549480,false,true,354,image-keyboard-response,32
true,2,0,1,2,false,d,false,false,0.0-2.0-0.7-0.63-3.63,0,0,0,81,false,stim,true,0,345.63500015065074,0,0,0,68822,WMM1,551359,false,false,357,image-keyboard-response,33
true,2,1,1,0,false,q,false,false,0.0-2.0-0.7-0.64-3.64,0,0,0,90,false,stim,true,1,316.82000029832125,0,0,2,68822,WMM1,553203,false,false,360,image-keyboard-response,34
true,2,2,1,2,true,d,false,false,0.0-2.0-0.7-0.65-3.65,0,0,0,68,false,stim,false,0,810.1550000719726,0,0,0,68822,WMM1,555538,false,true,363,image-keyboard-response,35
true,2,1,1,2,false,d,true,false,0.0-2.0-0.7-0.66-3.66,0,0,0,90,false,stim,false,0,307.7449998818338,0,0,0,68822,WMM1,557370,false,false,366,image-keyboard-response,36
true,2,0,1,0,true,q,false,true,0.0-2.0-0.7-0.67-3.67,0,0,0,81,false,stim,false,1,742.5049999728799,0,0,1,68822,WMM1,559632,false,false,369,image-keyboard-response,37
true,2,2,1,0,false,q,true,false,0.0-2.0-0.7-0.68-3.68,0,0,0,68,false,stim,false,1,549.8150000348687,0,0,2,68822,WMM1,561706,false,false,372,image-keyboard-response,38
true,2,0,1,0,true,q,false,true,0.0-2.0-0.7-0.69-3.69,0,0,0,81,false,stim,false,1,552.7099999599159,0,0,1,68822,WMM1,563787,false,false,375,image-keyboard-response,39
true,2,0,1,0,true,q,false,true,0.0-2.0-0.7-0.70-3.70,0,0,0,81,false,stim,false,1,726.170000154525,0,0,1,68822,WMM1,566046,false,false,378,image-keyboard-response,40
true,2,0,1,0,true,q,false,true,0.0-2.0-0.7-0.71-3.71,0,0,0,81,false,stim,false,1,821.7050000093877,0,0,2,68822,WMM1,568389,false,false,381,image-keyboard-response,41
true,2,0,1,0,true,q,false,true,0.0-2.0-0.8-0.72-3.72,0,0,0,81,false,stim,false,1,643.7399997375906,0,0,1,68822,WMM1,570557,false,false,384,image-keyboard-response,42
true,2,0,1,0,true,q,false,true,0.0-2.0-0.8-0.73-3.73,0,0,0,81,false,stim,false,1,738.5199996642768,0,0,1,68822,WMM1,572826,false,false,387,image-keyboard-response,43
true,2,0,1,2,false,d,false,false,0.0-2.0-0.8-0.74-3.74,0,0,0,81,false,stim,true,0,2691.124999895692,0,0,0,68822,WMM1,577030,false,false,390,image-keyboard-response,44
true,2,0,1,0,true,q,false,false,0.0-2.0-0.8-0.75-3.75,0,0,0,81,false,stim,false,1,676.2799997814,0,0,1,68822,WMM1,579215,false,true,393,image-keyboard-response,45
true,2,2,1,2,true,d,false,true,0.0-2.0-0.8-0.76-3.76,0,0,0,68,false,stim,false,0,1302.3000000976026,0,0,0,68822,WMM1,582039,false,false,396,image-keyboard-response,46
true,2,0,1,0,true,q,false,true,0.0-2.0-0.8-0.77-3.77,0,0,0,81,false,stim,false,1,1378.4250002354383,0,0,2,68822,WMM1,584948,false,false,399,image-keyboard-response,47
true,2,0,1,0,true,q,false,true,0.0-2.0-0.8-0.78-3.78,0,0,0,81,false,stim,false,1,872.0949999988079,0,0,2,68822,WMM1,587344,false,false,402,image-keyboard-response,48
true,2,0,1,0,true,q,false,true,0.0-2.0-0.8-0.79-3.79,0,0,0,81,false,stim,false,1,976.9199998117983,0,0,2,68822,WMM1,589847,false,false,405,image-keyboard-response,49
true,2,2,1,2,true,d,false,true,0.0-2.0-0.8-0.80-3.80,0,0,0,68,false,stim,false,0,1640.2450003661215,0,0,0,68822,WMM1,593015,false,false,408,image-keyboard-response,50
true,2,2,1,2,true,d,false,true,0.0-2.0-0.9-0.81-3.81,0,0,0,68,false,stim,false,0,759.8200002685189,0,0,0,68822,WMM1,595309,false,false,411,image-keyboard-response,51
true,2,2,1,2,true,d,false,true,0.0-2.0-0.9-0.82-3.82,0,0,0,68,false,stim,false,0,784.965000115335,0,0,0,68822,WMM1,597616,false,false,414,image-keyboard-response,52
true,2,0,1,0,true,q,false,true,0.0-2.0-0.9-0.83-3.83,0,0,0,81,false,stim,false,1,1092.7499998360872,0,0,2,68822,WMM1,600237,false,false,417,image-keyboard-response,53
true,2,0,1,0,true,q,false,true,0.0-2.0-0.9-0.84-3.84,0,0,0,81,false,stim,false,1,1113.1150000728667,0,0,1,68822,WMM1,602873,false,false,420,image-keyboard-response,54
true,2,2,1,0,false,q,true,false,0.0-2.0-0.9-0.85-3.85,0,0,0,68,false,stim,false,1,1156.329999677837,0,0,2,68822,WMM1,605554,false,false,423,image-keyboard-response,55
true,2,2,1,0,false,q,true,false,0.0-2.0-0.9-0.86-3.86,0,0,0,68,false,stim,false,1,1234.5149996690452,0,0,1,68822,WMM1,608317,false,false,426,image-keyboard-response,56
true,2,1,1,0,false,q,false,false,0.0-2.0-0.9-0.87-3.87,0,0,0,90,false,stim,true,1,1540.975000243634,0,0,2,68822,WMM1,611387,false,false,429,image-keyboard-response,57
true,2,0,1,0,true,q,false,true,0.0-2.0-0.9-0.88-3.88,0,0,0,81,false,stim,false,1,1640.03000035882,0,0,1,68822,WMM1,614552,false,false,432,image-keyboard-response,58
true,2,0,1,2,false,d,false,false,0.0-2.0-0.9-0.89-3.89,0,0,0,81,false,stim,true,0,2415.860000066459,0,0,0,68822,WMM1,618492,false,false,435,image-keyboard-response,59
true,2,2,1,2,true,d,false,true,0.0-2.0-0.10-0.90-3.90,0,0,0,68,false,stim,false,0,1223.9250000566244,0,0,0,68822,WMM1,621227,false,false,438,image-keyboard-response,60
false,3,-1,1,2,false,d,true,true,0.0-2.0-0.10-0.91-3.91,0,0,0,,true,stim,false,0,,0,0,2,68822,WMM1,625769,false,true,441,image-keyboard-response,1
true,3,0,1,2,false,d,false,false,0.0-2.0-0.10-0.92-3.92,0,0,0,81,false,stim,true,0,2460.899999830872,0,0,2,68822,WMM1,629748,false,false,444,image-keyboard-response,2
true,3,0,1,1,false,z,true,false,0.0-2.0-0.10-0.93-3.93,0,0,0,81,false,stim,false,2,973.2350003905594,0,0,0,68822,WMM1,632253,false,false,447,image-keyboard-response,3
true,3,2,1,1,false,z,true,false,0.0-2.0-0.10-0.94-3.94,0,0,0,68,false,stim,false,0,644.8450000025332,0,0,1,68822,WMM1,634427,false,false,450,image-keyboard-response,4
true,3,0,1,1,false,z,true,false,0.0-2.0-0.10-0.95-3.95,0,0,0,81,false,stim,false,2,856.8900004029274,0,0,0,68822,WMM1,636817,false,false,453,image-keyboard-response,5
true,3,1,1,1,true,z,false,true,0.0-2.0-0.10-0.96-3.96,0,0,0,90,false,stim,false,0,323.66500003263354,0,0,1,68822,WMM1,638663,false,false,456,image-keyboard-response,6
true,3,1,1,2,false,d,true,true,0.0-2.0-0.10-0.97-3.97,0,0,0,90,false,stim,false,0,417.74499975144863,0,0,2,68822,WMM1,640608,false,true,459,image-keyboard-response,7
true,3,1,1,1,true,z,false,true,0.0-2.0-0.10-0.98-3.98,0,0,0,90,false,stim,false,0,584.3549999408424,0,0,1,68822,WMM1,642722,false,false,462,image-keyboard-response,8
true,3,1,1,1,true,z,false,true,0.0-2.0-0.11-0.99-3.99,0,0,0,90,false,stim,false,0,1369.6400001645088,0,0,1,68822,WMM1,645616,false,false,465,image-keyboard-response,9
true,3,2,1,1,false,z,false,false,0.0-2.0-0.11-0.100-3.100,0,0,0,68,false,stim,true,2,1404.4650001451373,0,0,0,68822,WMM1,648540,false,false,468,image-keyboard-response,10
true,3,1,1,2,false,d,true,false,0.0-2.0-0.11-0.101-3.101,0,0,0,90,false,stim,false,0,928.1000001356006,0,0,2,68822,WMM1,650997,false,false,471,image-keyboard-response,11
true,3,0,1,1,false,z,true,false,0.0-2.0-0.11-0.102-3.102,0,0,0,81,false,stim,false,2,1903.1950002536178,0,0,0,68822,WMM1,654431,false,false,474,image-keyboard-response,12
true,3,1,1,1,true,z,false,true,0.0-2.0-0.11-0.103-3.103,0,0,0,90,false,stim,false,0,292.0399997383356,0,0,1,68822,WMM1,656256,false,false,477,image-keyboard-response,13
true,3,1,1,2,false,d,true,false,0.0-2.0-0.11-0.104-3.104,0,0,0,90,false,stim,false,0,490.22499984130263,0,0,2,68822,WMM1,658267,false,false,480,image-keyboard-response,14
true,3,1,1,2,false,d,true,false,0.0-2.0-0.11-0.105-3.105,0,0,0,90,false,stim,false,0,208.87000020593405,0,0,2,68822,WMM1,659992,false,false,483,image-keyboard-response,15
true,3,0,1,1,false,z,false,false,0.0-2.0-0.11-0.106-3.106,0,0,0,81,false,stim,true,0,700.0100002624094,0,0,1,68822,WMM1,662221,false,false,486,image-keyboard-response,16
true,3,1,1,1,true,z,false,true,0.0-2.0-0.11-0.107-3.107,0,0,0,90,false,stim,false,2,641.934999730438,0,0,0,68822,WMM1,664399,false,false,489,image-keyboard-response,17
true,3,1,1,2,false,d,true,false,0.0-2.0-0.12-0.108-3.108,0,0,0,90,false,stim,false,0,514.8950000293553,0,0,2,68822,WMM1,666435,false,false,492,image-keyboard-response,18
true,3,0,1,1,false,z,true,false,0.0-2.0-0.12-0.109-3.109,0,0,0,81,false,stim,false,2,1677.8450002893806,0,0,0,68822,WMM1,669639,false,false,495,image-keyboard-response,19
true,3,2,1,2,true,d,false,true,0.0-2.0-0.12-0.110-3.110,0,0,0,68,false,stim,false,0,642.8049998357892,0,0,2,68822,WMM1,671803,false,false,498,image-keyboard-response,20
true,3,2,1,1,false,z,true,false,0.0-2.0-0.12-0.111-3.111,0,0,0,68,false,stim,false,0,1102.8049997985363,0,0,1,68822,WMM1,674439,false,false,501,image-keyboard-response,21
true,3,1,1,1,true,z,false,true,0.0-2.0-0.12-0.112-3.112,0,0,0,90,false,stim,false,0,380.15999970957637,0,0,1,68822,WMM1,676343,false,false,504,image-keyboard-response,22
true,3,1,1,1,true,z,false,true,0.0-2.0-0.12-0.113-3.113,0,0,0,90,false,stim,false,0,1615.8850002102554,0,0,1,68822,WMM1,679486,false,false,507,image-keyboard-response,23
true,3,1,1,1,true,z,false,true,0.0-2.0-0.12-0.114-3.114,0,0,0,90,false,stim,false,2,1486.2000001594424,0,0,0,68822,WMM1,682509,false,false,510,image-keyboard-response,24
true,3,1,1,1,true,z,false,true,0.0-2.0-0.12-0.115-3.115,0,0,0,90,false,stim,false,2,1752.9649999924004,0,0,0,68822,WMM1,685799,false,false,513,image-keyboard-response,25
true,3,1,1,2,false,d,true,false,0.0-2.0-0.12-0.116-3.116,0,0,0,90,false,stim,false,0,730.2950001321733,0,0,2,68822,WMM1,688057,false,false,516,image-keyboard-response,26
true,3,2,1,1,false,z,true,false,0.0-2.0-0.13-0.117-3.117,0,0,0,68,false,stim,false,0,805.5599997751415,0,0,1,68822,WMM1,690379,false,false,519,image-keyboard-response,27
true,3,0,1,2,false,d,false,false,0.0-2.0-0.13-0.118-3.118,0,0,0,81,false,stim,true,0,468.22999976575375,0,0,2,68822,WMM1,692381,false,false,522,image-keyboard-response,28
true,3,1,1,2,false,d,true,false,0.0-2.0-0.13-0.119-3.119,0,0,0,90,false,stim,false,0,1232.5650001876056,0,0,2,68822,WMM1,695146,false,false,525,image-keyboard-response,29
true,3,2,1,2,true,d,false,true,0.0-2.0-0.13-0.120-3.120,0,0,0,68,false,stim,false,0,415.57499999180436,0,0,2,68822,WMM1,697083,false,false,528,image-keyboard-response,30
true,3,2,1,1,false,z,true,false,0.0-2.0-0.13-0.121-3.121,0,0,0,68,false,stim,false,0,1336.3900003023446,0,0,1,68822,WMM1,699931,false,false,531,image-keyboard-response,31
true,3,0,1,1,false,z,false,false,0.0-2.0-0.13-0.122-3.122,0,0,0,81,false,stim,true,0,515.275000128895,0,0,1,68822,WMM1,701981,false,false,534,image-keyboard-response,32
true,3,1,1,1,true,z,false,true,0.0-2.0-0.13-0.123-3.123,0,0,0,90,false,stim,false,2,213.7199998833239,0,0,0,68822,WMM1,703716,false,false,537,image-keyboard-response,33
true,3,1,1,1,true,z,false,true,0.0-2.0-0.13-0.124-3.124,0,0,0,90,false,stim,false,2,1302.6900002732873,0,0,0,68822,WMM1,706553,false,false,540,image-keyboard-response,34
true,3,1,1,1,true,z,false,true,0.0-2.0-0.13-0.125-3.125,0,0,0,90,false,stim,false,2,1294.9999999254942,0,0,0,68822,WMM1,709364,false,false,543,image-keyboard-response,35
true,3,1,1,1,true,z,false,true,0.0-2.0-0.14-0.126-3.126,0,0,0,90,false,stim,false,2,537.4900000169873,0,0,0,68822,WMM1,711426,false,false,546,image-keyboard-response,36
true,3,1,1,1,true,z,false,true,0.0-2.0-0.14-0.127-3.127,0,0,0,90,false,stim,false,2,616.4750000461936,0,0,0,68822,WMM1,713569,false,false,549,image-keyboard-response,37
true,3,1,1,1,true,z,false,true,0.0-2.0-0.14-0.128-3.128,0,0,0,90,false,stim,false,2,853.1599999405444,0,0,0,68822,WMM1,715954,false,false,552,image-keyboard-response,38
true,3,2,1,2,true,d,false,true,0.0-2.0-0.14-0.129-3.129,0,0,0,68,false,stim,false,0,2008.8399997912347,0,0,2,68822,WMM1,719478,false,false,555,image-keyboard-response,39
true,3,1,1,1,true,z,false,true,0.0-2.0-0.14-0.130-3.130,0,0,0,90,false,stim,false,0,1779.7400001436472,0,0,1,68822,WMM1,722785,false,false,558,image-keyboard-response,40
true,3,1,1,1,true,z,false,true,0.0-2.0-0.14-0.131-3.131,0,0,0,90,false,stim,false,0,824.3649997748435,0,0,1,68822,WMM1,725133,false,false,561,image-keyboard-response,41
true,3,1,1,2,false,d,true,false,0.0-2.0-0.14-0.132-3.132,0,0,0,90,false,stim,false,0,1465.5399997718632,0,0,2,68822,WMM1,728122,false,false,564,image-keyboard-response,42
true,3,2,1,2,true,d,false,false,0.0-2.0-0.14-0.133-3.133,0,0,0,68,false,stim,false,0,326.88000006601214,0,0,2,68822,WMM1,729959,false,true,567,image-keyboard-response,43
true,3,0,1,1,false,z,false,false,0.0-2.0-0.14-0.134-3.134,0,0,0,81,false,stim,true,0,243.07999992743134,0,1,1,68822,WMM1,731729,false,false,570,image-keyboard-response,44
true,3,1,1,1,true,z,false,true,0.0-2.0-0.15-0.135-3.135,0,0,0,90,false,stim,false,2,1184.9599997512996,0,0,0,68822,WMM1,734438,false,false,573,image-keyboard-response,45
true,3,1,1,1,true,z,false,true,0.0-2.0-0.15-0.136-3.136,0,0,0,90,false,stim,false,2,601.35000012815,0,0,0,68822,WMM1,736561,false,false,576,image-keyboard-response,46
true,3,1,1,1,true,z,false,true,0.0-2.0-0.15-0.137-3.137,0,0,0,90,false,stim,false,2,646.8700002878904,0,0,0,68822,WMM1,738740,false,false,579,image-keyboard-response,47
true,3,2,1,2,true,d,false,true,0.0-2.0-0.15-0.138-3.138,0,0,0,68,false,stim,false,0,2636.320000048727,0,0,2,68822,WMM1,742908,false,false,582,image-keyboard-response,48
true,3,0,1,1,false,z,false,false,0.0-2.0-0.15-0.139-3.139,0,0,0,81,false,stim,true,0,1525.3449999727309,0,1,1,68822,WMM1,745961,false,false,585,image-keyboard-response,49
true,3,1,1,2,false,d,true,true,0.0-2.0-0.15-0.140-3.140,0,0,0,90,false,stim,false,0,990.274999756366,0,0,2,68822,WMM1,748464,false,true,588,image-keyboard-response,50
true,3,1,1,2,false,d,true,false,0.0-2.0-0.15-0.141-3.141,0,0,0,90,false,stim,false,0,779.9800001084805,0,0,2,68822,WMM1,750773,false,false,591,image-keyboard-response,51
true,4,2,3,1,false,z,true,false,0.0-2.0-0.15-0.142-3.142,0,1,0,68,true,stim,false,1,553.2749998383224,0,1,1,68822,WMM1,752859,false,false,594,image-keyboard-response,1
true,4,1,3,1,true,z,false,true,0.0-2.0-0.15-0.143-3.143,0,1,0,90,false,stim,false,1,701.2700000777841,0,1,1,68822,WMM1,755084,false,false,597,image-keyboard-response,2
true,4,1,3,1,true,z,false,true,0.0-2.0-0.16-0.144-3.144,0,1,0,90,false,stim,false,1,1311.4849999547005,0,1,1,68822,WMM1,757919,false,false,600,image-keyboard-response,3
true,4,2,3,0,false,q,false,false,0.0-2.0-0.16-0.145-3.145,0,1,0,68,false,stim,true,2,1158.1500000320375,0,0,2,68822,WMM1,760599,false,false,603,image-keyboard-response,4
true,4,1,3,2,false,d,false,false,0.0-2.0-0.16-0.146-3.146,0,1,0,90,false,stim,true,1,974.1650000214577,0,0,0,68822,WMM1,763106,false,false,606,image-keyboard-response,5
true,4,1,3,0,false,q,true,false,0.0-2.0-0.16-0.147-3.147,0,1,0,90,false,stim,false,2,1112.6850000582635,0,0,2,68822,WMM1,765730,false,false,609,image-keyboard-response,6
true,4,1,3,2,false,d,false,false,0.0-2.0-0.16-0.148-3.148,0,1,0,90,false,stim,true,1,1387.9450000822544,0,0,0,68822,WMM1,768639,false,false,612,image-keyboard-response,7
true,4,2,3,1,false,z,true,false,0.0-2.0-0.16-0.149-3.149,0,1,0,68,false,stim,false,1,1361.2650004215539,0,1,1,68822,WMM1,771520,false,false,615,image-keyboard-response,8
true,4,0,3,2,false,d,true,false,0.0-2.0-0.16-0.150-3.150,0,1,0,81,false,stim,false,1,893.8350002281368,0,0,0,68822,WMM1,773935,false,false,618,image-keyboard-response,9
true,4,0,3,1,false,z,true,false,0.0-2.0-0.16-0.151-3.151,0,1,0,81,false,stim,false,1,1036.5900001488626,0,1,1,68822,WMM1,776502,false,false,621,image-keyboard-response,10
true,4,1,3,0,false,q,true,false,0.0-2.0-0.16-0.152-3.152,0,1,0,90,false,stim,false,2,291.62999987602234,0,0,2,68822,WMM1,778322,false,false,624,image-keyboard-response,11
true,4,1,3,1,true,z,false,true,0.0-2.0-0.17-0.153-3.153,0,1,0,90,false,stim,false,1,931.9250001572073,0,1,1,68822,WMM1,780773,false,false,627,image-keyboard-response,12
true,4,2,3,0,false,q,false,false,0.0-2.0-0.17-0.154-3.154,0,1,0,68,false,stim,true,2,790.7400000840425,0,0,2,68822,WMM1,783084,false,false,630,image-keyboard-response,13
true,4,1,3,0,false,q,true,false,0.0-2.0-0.17-0.155-3.155,0,1,0,90,false,stim,false,2,398.30000000074506,0,0,2,68822,WMM1,785003,false,false,633,image-keyboard-response,14
true,4,0,3,2,false,d,true,false,0.0-2.0-0.17-0.156-3.156,0,1,0,81,false,stim,false,1,893.7399997375906,0,0,0,68822,WMM1,787419,false,false,636,image-keyboard-response,15
true,4,0,3,1,false,z,true,false,0.0-2.0-0.17-0.157-3.157,0,1,0,81,false,stim,false,1,1512.550000101328,0,1,1,68822,WMM1,790454,false,false,639,image-keyboard-response,16
true,4,1,3,2,false,d,false,false,0.0-2.0-0.17-0.158-3.158,0,1,0,90,false,stim,true,1,712.0449999347329,0,0,0,68822,WMM1,792687,false,false,642,image-keyboard-response,17
true,4,0,3,2,false,d,true,false,0.0-2.0-0.17-0.159-3.159,0,1,0,81,false,stim,false,1,2115.3849996626377,0,0,0,68822,WMM1,796325,false,false,645,image-keyboard-response,18
true,4,1,3,1,true,z,false,true,0.0-2.0-0.17-0.160-3.160,0,1,0,90,false,stim,false,1,1262.895000167191,0,1,1,68822,WMM1,799095,false,false,648,image-keyboard-response,19
true,4,2,3,0,false,q,false,false,0.0-2.0-0.17-0.161-3.161,0,1,0,68,false,stim,true,2,955.3000000305474,0,0,2,68822,WMM1,801575,false,false,651,image-keyboard-response,20
true,4,1,3,0,false,q,true,false,0.0-2.0-0.18-0.162-3.162,0,1,0,90,false,stim,false,2,1349.3449999950826,0,0,2,68822,WMM1,804453,false,false,654,image-keyboard-response,21
true,4,1,3,2,false,d,false,false,0.0-2.0-0.18-0.163-3.163,0,1,0,90,false,stim,true,1,1206.8600002676249,0,0,0,68822,WMM1,807192,false,false,657,image-keyboard-response,22
true,4,1,3,2,false,d,false,false,0.0-2.0-0.18-0.164-3.164,0,1,0,90,false,stim,true,1,1035.3850000537932,0,0,0,68822,WMM1,809749,false,false,660,image-keyboard-response,23
true,4,0,3,1,false,z,true,false,0.0-2.0-0.18-0.165-3.165,0,1,0,81,false,stim,false,1,245.51000026986003,0,1,1,68822,WMM1,811509,false,false,663,image-keyboard-response,24
true,4,1,3,0,false,q,true,false,0.0-2.0-0.18-0.166-3.166,0,1,0,90,false,stim,false,2,1598.1399999000132,0,0,2,68822,WMM1,814624,false,false,666,image-keyboard-response,25
true,4,2,3,0,false,q,false,false,0.0-2.0-0.18-0.167-3.167,0,1,0,68,false,stim,true,2,466.86000004410744,0,0,2,68822,WMM1,816625,false,false,669,image-keyboard-response,26
true,4,1,3,1,true,z,false,true,0.0-2.0-0.18-0.168-3.168,0,1,0,90,false,stim,false,1,1536.8300001136959,0,1,1,68822,WMM1,819688,false,false,672,image-keyboard-response,27
true,4,1,3,2,false,d,false,false,0.0-2.0-0.18-0.169-3.169,0,1,0,90,false,stim,true,1,2775.3599998541176,0,0,0,68822,WMM1,823976,false,false,675,image-keyboard-response,28
true,4,1,3,1,true,z,false,true,0.0-2.0-0.18-0.170-3.170,0,1,0,90,false,stim,false,1,1919.4750003516674,0,1,1,68822,WMM1,827405,false,false,678,image-keyboard-response,29
true,4,0,3,0,true,q,false,true,0.0-2.0-0.19-0.171-3.171,0,1,0,81,false,stim,false,2,1073.9549999125302,0,0,2,68822,WMM1,830002,false,false,681,image-keyboard-response,30
false,4,-1,3,1,false,z,true,false,0.0-2.0-0.19-0.172-3.172,0,1,0,,false,stim,false,1,,0,1,1,68822,WMM1,834542,false,false,684,image-keyboard-response,31
true,4,1,3,1,true,z,false,true,0.0-2.0-0.19-0.173-3.173,0,1,0,90,false,stim,false,1,1054.2399999685585,0,1,1,68822,WMM1,837127,false,false,687,image-keyboard-response,32
true,4,0,3,0,true,q,false,true,0.0-2.0-0.19-0.174-3.174,0,1,0,81,false,stim,false,2,902.6399999856949,0,0,2,68822,WMM1,839554,false,false,690,image-keyboard-response,33
true,4,2,3,2,true,d,false,true,0.0-2.0-0.19-0.175-3.175,0,1,0,68,false,stim,false,1,2812.7799998037517,0,0,0,68822,WMM1,843900,false,false,693,image-keyboard-response,34
false,4,-1,3,0,false,q,true,false,0.0-2.0-0.19-0.176-3.176,0,1,0,,false,stim,false,2,,0,0,2,68822,WMM1,848442,false,false,696,image-keyboard-response,35
true,4,0,3,2,false,d,true,false,0.0-2.0-0.19-0.177-3.177,0,1,0,81,false,stim,false,1,1773.3350000344217,0,0,0,68822,WMM1,851738,false,false,699,image-keyboard-response,36
true,4,1,3,1,true,z,false,true,0.0-2.0-0.19-0.178-3.178,0,1,0,90,false,stim,false,1,1617.8899998776615,0,1,1,68822,WMM1,854876,false,false,702,image-keyboard-response,37
true,4,2,3,2,true,d,false,true,0.0-2.0-0.19-0.179-3.179,0,1,0,68,false,stim,false,1,2588.244999758899,0,0,0,68822,WMM1,858992,false,false,705,image-keyboard-response,38
true,4,0,3,0,true,q,false,true,0.0-2.0-0.20-0.180-3.180,0,1,0,81,false,stim,false,2,2349.125000182539,0,0,2,68822,WMM1,862874,false,false,708,image-keyboard-response,39
true,4,1,3,1,true,z,false,true,0.0-2.0-0.20-0.181-3.181,0,1,0,90,false,stim,false,1,822.1050002612174,0,1,1,68822,WMM1,865223,false,false,711,image-keyboard-response,40
true,4,0,3,0,true,q,false,true,0.0-2.0-0.20-0.182-3.182,0,1,0,81,false,stim,false,2,1610.9949997626245,0,0,2,68822,WMM1,868371,false,false,714,image-keyboard-response,41
true,4,2,3,2,true,d,false,true,0.0-2.0-0.20-0.183-3.183,0,1,0,68,false,stim,false,1,2603.289999999106,0,0,0,68822,WMM1,872492,false,false,717,image-keyboard-response,42
true,4,0,3,0,true,q,false,true,0.0-2.0-0.20-0.184-3.184,0,1,0,81,false,stim,false,2,3010.249999817461,0,0,2,68822,WMM1,877025,false,false,720,image-keyboard-response,43
true,4,2,3,2,true,d,false,true,0.0-2.0-0.20-0.185-3.185,0,1,0,68,false,stim,false,1,2339.3149999901652,0,0,0,68822,WMM1,880895,false,false,723,image-keyboard-response,44
true,4,2,3,2,true,d,false,true,0.0-2.0-0.20-0.186-3.186,0,1,0,68,false,stim,false,1,953.8750001229346,0,0,0,68822,WMM1,883380,false,false,726,image-keyboard-response,45
true,4,1,3,1,true,z,false,true,0.0-2.0-0.20-0.187-3.187,0,1,0,90,false,stim,false,1,1767.0200001448393,0,0,1,68822,WMM1,886679,false,false,729,image-keyboard-response,46
true,4,1,3,1,true,z,false,true,0.0-2.0-0.20-0.188-3.188,0,1,0,90,false,stim,false,1,2862.375000026077,0,0,1,68822,WMM1,891062,false,false,732,image-keyboard-response,47
true,4,0,3,0,true,q,false,true,0.0-2.0-0.21-0.189-3.189,0,1,0,81,false,stim,false,2,2014.459999743849,0,0,2,68822,WMM1,894604,false,false,735,image-keyboard-response,48
true,4,1,3,1,true,z,false,true,0.0-2.0-0.21-0.190-3.190,0,1,0,90,false,stim,false,1,1184.600000269711,0,0,1,68822,WMM1,897298,false,false,738,image-keyboard-response,49
true,4,2,3,2,true,d,false,true,0.0-2.0-0.21-0.191-3.191,0,1,0,68,false,stim,false,1,1406.070000026375,0,0,0,68822,WMM1,900233,false,false,741,image-keyboard-response,50
true,4,1,3,1,true,z,false,false,0.0-2.0-0.21-0.192-3.192,0,1,0,90,false,stim,false,1,1338.0450000986457,0,0,1,68822,WMM1,903089,false,true,744,image-keyboard-response,51
true,4,0,3,2,false,d,true,true,0.0-2.0-0.21-0.193-3.193,0,1,0,81,false,stim,false,1,1060.3450001217425,0,0,0,68822,WMM1,905672,false,true,747,image-keyboard-response,52
true,5,2,1,2,true,d,false,false,0.0-2.0-0.21-0.194-3.194,0,0,0,68,true,stim,false,0,1410.5400000698864,0,0,2,68822,WMM1,908600,false,true,750,image-keyboard-response,1
false,5,-1,1,2,false,d,true,false,0.0-2.0-0.21-0.195-3.195,0,0,0,,false,stim,false,1,,0,0,1,68822,WMM1,913134,false,false,753,image-keyboard-response,2
true,5,1,1,2,false,d,true,false,0.0-2.0-0.21-0.196-3.196,0,0,0,90,false,stim,false,0,1227.7599996887147,0,0,2,68822,WMM1,915896,false,false,756,image-keyboard-response,3
true,5,0,1,1,false,z,true,false,0.0-2.0-0.21-0.197-3.197,0,0,0,81,false,stim,false,2,1297.5200000219047,0,0,0,68822,WMM1,918715,false,false,759,image-keyboard-response,4
true,5,2,1,2,true,d,false,true,0.0-2.0-0.22-0.198-3.198,0,0,0,68,false,stim,false,1,1704.640000127256,0,0,1,68822,WMM1,921946,false,false,762,image-keyboard-response,5
true,5,2,1,2,true,d,false,true,0.0-2.0-0.22-0.199-3.199,0,0,0,68,false,stim,false,1,786.7449996992946,0,0,1,68822,WMM1,924267,false,false,765,image-keyboard-response,6
true,5,1,1,1,true,z,false,true,0.0-2.0-0.22-0.200-3.200,0,0,0,90,false,stim,false,2,1262.445000000298,0,0,0,68822,WMM1,927053,false,false,768,image-keyboard-response,7
true,5,0,1,2,false,d,false,false,0.0-2.0-0.22-0.201-3.201,0,0,0,81,false,stim,true,0,1227.2549998015165,0,0,2,68822,WMM1,929803,false,false,771,image-keyboard-response,8
true,5,1,1,2,false,d,true,false,0.0-2.0-0.22-0.202-3.202,0,0,0,90,false,stim,false,0,1666.1600000225008,0,0,2,68822,WMM1,932992,false,false,774,image-keyboard-response,9
true,5,2,1,2,true,d,false,true,0.0-2.0-0.22-0.203-3.203,0,0,0,68,false,stim,false,1,1845.9950000979006,0,0,1,68822,WMM1,936362,false,false,777,image-keyboard-response,10
true,5,1,1,1,true,z,false,true,0.0-2.0-0.22-0.204-3.204,0,0,0,90,false,stim,false,2,1439.354999922216,0,0,0,68822,WMM1,939322,false,false,780,image-keyboard-response,11
true,5,1,1,1,true,z,false,true,0.0-2.0-0.22-0.205-3.205,0,0,0,90,false,stim,false,2,908.9399999938905,0,0,0,68822,WMM1,941760,false,false,783,image-keyboard-response,12
true,5,2,1,2,true,d,false,true,0.0-2.0-0.22-0.206-3.206,0,0,0,68,false,stim,false,0,564.1499999910593,0,0,2,68822,WMM1,943846,false,false,786,image-keyboard-response,13
true,5,2,1,2,true,d,false,true,0.0-2.0-0.23-0.207-3.207,0,0,0,68,false,stim,false,1,1797.0300000160933,0,0,1,68822,WMM1,947155,false,false,789,image-keyboard-response,14
true,5,2,1,2,true,d,false,true,0.0-2.0-0.23-0.208-3.208,0,0,0,68,false,stim,false,1,453.55999981984496,0,0,1,68822,WMM1,949136,false,false,792,image-keyboard-response,15
true,5,1,1,1,true,z,false,true,0.0-2.0-0.23-0.209-3.209,0,0,0,90,false,stim,false,2,1104.5500002801418,0,0,0,68822,WMM1,951761,false,false,795,image-keyboard-response,16
true,5,2,1,2,true,d,false,true,0.0-2.0-0.23-0.210-3.210,0,0,0,68,false,stim,false,0,598.2849998399615,0,0,2,68822,WMM1,953891,false,false,798,image-keyboard-response,17
true,5,1,1,1,true,z,false,true,0.0-2.0-0.23-0.211-3.211,0,0,0,90,false,stim,false,2,647.4799998104572,0,0,0,68822,WMM1,956076,false,false,801,image-keyboard-response,18
true,5,2,1,2,true,d,false,true,0.0-2.0-0.23-0.212-3.212,0,0,0,68,false,stim,false,0,785.9450001269579,0,0,2,68822,WMM1,958388,false,false,804,image-keyboard-response,19
true,5,1,1,1,true,z,false,true,0.0-2.0-0.23-0.213-3.213,0,0,0,90,false,stim,false,2,649.0100002847612,0,0,0,68822,WMM1,960558,false,false,807,image-keyboard-response,20
true,5,2,1,2,true,d,false,true,0.0-2.0-0.23-0.214-3.214,0,0,0,68,false,stim,false,0,761.0650002025068,0,0,2,68822,WMM1,962833,false,false,810,image-keyboard-response,21
true,5,1,1,2,false,d,false,false,0.0-2.0-0.23-0.215-3.215,0,0,0,90,false,stim,true,1,2572.475000284612,0,0,1,68822,WMM1,966934,false,false,813,image-keyboard-response,22
true,5,1,1,1,true,z,false,true,0.0-2.0-0.24-0.216-3.216,0,0,0,90,false,stim,false,2,611.2900003790855,0,0,0,68822,WMM1,969063,false,false,816,image-keyboard-response,23
true,5,2,1,2,true,d,false,true,0.0-2.0-0.24-0.217-3.217,0,0,0,68,false,stim,false,0,450.71500027552247,0,0,2,68822,WMM1,971040,false,false,819,image-keyboard-response,24
true,5,2,1,2,true,d,false,true,0.0-2.0-0.24-0.218-3.218,0,0,0,68,false,stim,false,0,549.8799998313189,0,0,2,68822,WMM1,973117,false,false,822,image-keyboard-response,25
true,5,0,1,2,false,d,true,false,0.0-2.0-0.24-0.219-3.219,0,0,0,81,false,stim,false,1,857.1250000968575,0,0,1,68822,WMM1,975498,false,false,825,image-keyboard-response,26
true,5,2,1,2,true,d,false,true,0.0-2.0-0.24-0.220-3.220,0,0,0,68,false,stim,false,0,684.9750000983477,0,0,2,68822,WMM1,977705,false,false,828,image-keyboard-response,27
true,5,1,1,2,false,d,false,false,0.0-2.0-0.24-0.221-3.221,0,0,0,90,false,stim,true,1,2050.564999692142,0,0,1,68822,WMM1,981280,false,false,831,image-keyboard-response,28
true,5,1,1,1,true,z,false,true,0.0-2.0-0.24-0.222-3.222,0,0,0,90,false,stim,false,2,1708.2799999043345,0,0,0,68822,WMM1,984516,false,false,834,image-keyboard-response,29
true,5,1,1,2,false,d,false,false,0.0-2.0-0.24-0.223-3.223,0,0,0,90,false,stim,true,1,1734.3350001610816,0,0,1,68822,WMM1,987770,false,false,837,image-keyboard-response,30
true,6,0,2,2,false,d,true,false,0.0-2.0-0.24-0.224-3.224,0,0,0,81,true,stim,false,1,2071.510000154376,0,0,0,68822,WMM1,991366,false,false,840,image-keyboard-response,1
true,6,1,2,2,false,d,false,false,0.0-2.0-0.25-0.225-3.225,0,0,0,90,false,stim,true,1,391.83499990031123,0,0,0,68822,WMM1,993287,false,false,843,image-keyboard-response,2
true,6,1,2,1,true,z,false,true,0.0-2.0-0.25-0.226-3.226,0,0,0,90,false,stim,false,2,2936.995000112802,0,0,1,68822,WMM1,997753,false,false,846,image-keyboard-response,3
true,6,2,2,0,false,q,false,true,0.0-2.0-0.25-0.227-3.227,0,0,0,68,false,stim,true,2,798.984999768436,0,0,2,68822,WMM1,1000077,false,true,849,image-keyboard-response,4
true,6,1,2,1,true,z,false,true,0.0-2.0-0.25-0.228-3.228,0,0,0,90,false,stim,false,2,1664.1199998557568,0,0,1,68822,WMM1,1003264,false,false,852,image-keyboard-response,5
true,6,2,2,2,true,d,false,true,0.0-2.0-0.25-0.229-3.229,0,0,0,68,false,stim,false,1,929.47500012815,0,0,0,68822,WMM1,1005723,false,false,855,image-keyboard-response,6
true,6,2,2,0,false,q,false,false,0.0-2.0-0.25-0.230-3.230,0,0,0,68,false,stim,true,2,672.5250002928078,0,0,2,68822,WMM1,1007910,false,false,858,image-keyboard-response,7
true,6,2,2,1,false,z,false,false,0.0-2.0-0.25-0.231-3.231,0,0,0,68,false,stim,true,2,1319.379999767989,0,0,1,68822,WMM1,1010760,false,false,861,image-keyboard-response,8
true,6,2,2,2,true,d,false,true,0.0-2.0-0.25-0.232-3.232,0,0,0,68,false,stim,false,1,1735.975000075996,0,0,0,68822,WMM1,1014006,false,false,864,image-keyboard-response,9
true,6,1,2,0,false,q,true,false,0.0-2.0-0.25-0.233-3.233,0,0,0,90,false,stim,false,2,1331.1049998737872,0,0,2,68822,WMM1,1016856,false,false,867,image-keyboard-response,10
true,6,0,2,0,true,q,false,true,0.0-2.0-0.26-0.234-3.234,0,0,0,81,false,stim,false,2,653.6699999123812,0,0,2,68822,WMM1,1019035,false,false,870,image-keyboard-response,11
false,6,-1,2,2,false,d,true,false,0.0-2.0-0.26-0.235-3.235,0,0,0,,false,stim,false,1,,0,0,0,68822,WMM1,1023577,false,false,873,image-keyboard-response,12
true,6,1,2,1,true,z,false,true,0.0-2.0-0.26-0.236-3.236,0,0,0,90,false,stim,false,2,1562.9199999384582,0,0,1,68822,WMM1,1026673,false,false,876,image-keyboard-response,13
true,6,1,2,1,true,z,false,false,0.0-2.0-0.26-0.237-3.237,0,0,0,90,false,stim,false,2,903.6399996839464,0,0,1,68822,WMM1,1029091,false,true,879,image-keyboard-response,14
true,6,2,2,2,true,d,false,true,0.0-2.0-0.26-0.238-3.238,0,0,0,68,false,stim,false,1,1974.0249998867512,0,0,0,68822,WMM1,1032583,false,false,882,image-keyboard-response,15
true,6,2,2,2,true,d,false,true,0.0-2.0-0.26-0.239-3.239,0,0,0,68,false,stim,false,1,742.2549999319017,0,0,0,68822,WMM1,1034835,false,false,885,image-keyboard-response,16
true,6,0,2,1,false,z,true,false,0.0-2.0-0.26-0.240-3.240,0,0,0,81,false,stim,false,2,2592.4700000323355,0,0,1,68822,WMM1,1038952,false,false,888,image-keyboard-response,17
true,6,2,2,0,false,q,false,false,0.0-2.0-0.26-0.241-3.241,0,0,0,68,false,stim,true,2,628.9200000464916,0,0,2,68822,WMM1,1041106,false,false,891,image-keyboard-response,18
true,6,1,2,0,false,q,true,false,0.0-2.0-0.26-0.242-3.242,0,0,0,90,false,stim,false,2,320.3749996609986,0,0,2,68822,WMM1,1042941,false,false,894,image-keyboard-response,19
true,6,0,2,2,false,d,true,true,0.0-2.0-0.27-0.243-3.243,0,0,0,81,false,stim,false,1,653.2749999314547,0,0,0,68822,WMM1,1045105,false,true,897,image-keyboard-response,20
true,6,0,2,2,false,d,true,false,0.0-2.0-0.27-0.244-3.244,0,0,0,81,false,stim,false,1,1311.4899997599423,0,0,0,68822,WMM1,1047937,false,false,900,image-keyboard-response,21
false,6,-1,2,0,false,q,true,false,0.0-2.0-0.27-0.245-3.245,0,0,0,,false,stim,false,2,,0,0,2,68822,WMM1,1052492,false,false,903,image-keyboard-response,22
true,6,2,2,0,false,q,false,false,0.0-2.0-0.27-0.246-3.246,0,0,0,68,false,stim,true,2,713.6399997398257,0,0,2,68822,WMM1,1054745,false,false,906,image-keyboard-response,23
true,6,1,2,1,true,z,false,false,0.0-2.0-0.27-0.247-3.247,0,0,0,90,false,stim,false,2,640.7599998638034,0,0,1,68822,WMM1,1056898,false,true,909,image-keyboard-response,24
true,6,0,2,1,false,z,true,false,0.0-2.0-0.27-0.248-3.248,0,0,0,81,false,stim,false,2,764.8300002329051,0,0,1,68822,WMM1,1059174,false,false,912,image-keyboard-response,25
true,6,2,2,1,false,z,false,false,0.0-2.0-0.27-0.249-3.249,0,0,0,68,false,stim,true,2,536.3150001503527,0,0,1,68822,WMM1,1061236,false,false,915,image-keyboard-response,26
true,6,2,2,0,false,q,false,false,0.0-2.0-0.27-0.250-3.250,0,0,0,68,false,stim,true,2,1404.3700001202524,0,0,2,68822,WMM1,1064172,false,false,918,image-keyboard-response,27
true,6,1,2,2,false,d,false,false,0.0-2.0-0.27-0.251-3.251,0,0,0,90,false,stim,true,1,2424.335000105202,0,0,0,68822,WMM1,1068121,false,false,921,image-keyboard-response,28
false,6,-1,2,0,false,q,true,false,0.0-2.0-0.28-0.252-3.252,0,0,0,,false,stim,false,2,,0,0,2,68822,WMM1,1072639,false,false,924,image-keyboard-response,29
true,6,1,2,2,false,d,false,true,0.0-2.0-0.28-0.253-3.253,0,0,0,90,false,stim,true,1,1011.4299999549985,0,0,0,68822,WMM1,1075187,false,true,927,image-keyboard-response,30
true,6,1,2,2,false,d,false,false,0.0-2.0-0.28-0.254-3.254,0,0,0,90,false,stim,true,1,683.699999935925,0,0,0,68822,WMM1,1077389,false,false,930,image-keyboard-response,31
true,6,0,2,2,false,d,true,false,0.0-2.0-0.28-0.255-3.255,0,0,0,81,false,stim,false,1,2486.1900000832975,0,0,0,68822,WMM1,1081408,false,false,933,image-keyboard-response,32
true,6,2,2,1,false,z,false,false,0.0-2.0-0.28-0.256-3.256,0,0,0,68,false,stim,true,2,1183.8549999520183,0,0,1,68822,WMM1,1084128,false,false,936,image-keyboard-response,33
true,6,1,2,0,false,q,true,false,0.0-2.0-0.28-0.257-3.257,0,0,0,90,false,stim,false,2,1492.7649996243417,0,0,2,68822,WMM1,1087157,false,false,939,image-keyboard-response,34
true,6,0,2,1,false,z,true,false,0.0-2.0-0.28-0.258-3.258,0,0,0,81,false,stim,false,2,1255.4250000976026,0,0,1,68822,WMM1,1089940,false,false,942,image-keyboard-response,35
true,6,2,2,0,false,q,false,false,0.0-2.0-0.28-0.259-3.259,0,0,0,68,false,stim,true,2,565.2700001373887,0,0,2,68822,WMM1,1092022,false,false,945,image-keyboard-response,36
true,6,1,2,1,true,z,false,true,0.0-2.0-0.28-0.260-3.260,0,0,0,90,false,stim,false,2,599.8249999247491,0,0,1,68822,WMM1,1094148,false,false,948,image-keyboard-response,37
true,6,1,2,1,true,z,false,true,0.0-2.0-0.29-0.261-3.261,0,0,0,90,false,stim,false,2,498.0399999767542,0,0,1,68822,WMM1,1096177,false,false,951,image-keyboard-response,38
true,6,0,2,2,false,d,true,false,0.0-2.0-0.29-0.262-3.262,0,0,0,81,false,stim,false,1,1172.1999999135733,0,0,0,68822,WMM1,1098882,false,false,954,image-keyboard-response,39
true,6,2,2,0,false,q,false,false,0.0-2.0-0.29-0.263-3.263,0,0,0,68,false,stim,true,2,1570.0799999758601,0,0,2,68822,WMM1,1101981,false,false,957,image-keyboard-response,40
true,6,1,2,2,false,d,false,false,0.0-2.0-0.29-0.264-3.264,0,0,0,90,false,stim,true,1,1689.4749999046326,0,0,0,68822,WMM1,1105183,false,false,960,image-keyboard-response,41
true,6,0,2,2,false,d,true,false,0.0-2.0-0.29-0.265-3.265,0,0,0,81,false,stim,false,1,1236.4699998870492,0,0,0,68822,WMM1,1107942,false,false,963,image-keyboard-response,42
true,6,2,2,0,false,q,false,false,0.0-2.0-0.29-0.266-3.266,0,0,0,68,false,stim,true,2,1922.8699998930097,0,0,2,68822,WMM1,1111395,false,false,966,image-keyboard-response,43
true,6,1,2,0,false,q,true,false,0.0-2.0-0.29-0.267-3.267,0,0,0,90,false,stim,false,2,946.6200000606477,0,0,2,68822,WMM1,1113872,false,false,969,image-keyboard-response,44
true,6,1,2,1,true,z,false,false,0.0-2.0-0.29-0.268-3.268,0,0,0,90,false,stim,false,2,1616.2200001999736,0,0,1,68822,WMM1,1117016,false,true,972,image-keyboard-response,45
true,6,0,2,1,false,z,true,true,0.0-2.0-0.29-0.269-3.269,0,0,0,81,false,stim,false,2,1595.7550001330674,0,0,1,68822,WMM1,1120123,false,true,975,image-keyboard-response,46
true,6,1,2,0,false,q,true,false,0.0-2.0-0.30-0.270-3.270,0,0,0,90,false,stim,false,2,2873.2799999415874,0,0,2,68822,WMM1,1124518,false,false,978,image-keyboard-response,47
true,6,1,2,2,false,d,false,false,0.0-2.0-0.30-0.271-3.271,0,0,0,90,false,stim,true,1,803.2000004313886,0,0,0,68822,WMM1,1126852,false,false,981,image-keyboard-response,48
true,6,2,2,2,true,d,false,true,0.0-2.0-0.30-0.272-3.272,0,0,0,68,false,stim,false,1,700.5099998787045,0,0,0,68822,WMM1,1129063,false,false,984,image-keyboard-response,49
true,6,0,2,0,true,q,false,true,0.0-2.0-0.30-0.273-3.273,0,0,0,81,false,stim,false,2,2231.825000140816,0,0,2,68822,WMM1,1132828,false,false,987,image-keyboard-response,50
true,6,1,2,1,true,z,false,true,0.0-2.0-0.30-0.274-3.274,0,0,0,90,false,stim,false,2,2071.684999857098,0,0,1,68822,WMM1,1136435,false,false,990,image-keyboard-response,51
true,6,2,2,0,false,q,false,false,0.0-2.0-0.30-0.275-3.275,0,0,0,68,false,stim,true,2,1748.0699997395277,0,0,2,68822,WMM1,1139709,false,false,993,image-keyboard-response,52
true,6,1,2,1,true,z,false,false,0.0-2.0-0.30-0.276-3.276,0,0,0,90,false,stim,false,2,1413.8150000944734,0,0,1,68822,WMM1,1142651,false,true,996,image-keyboard-response,53
true,6,1,2,2,false,d,false,false,0.0-2.0-0.30-0.277-3.277,0,0,0,90,false,stim,true,1,2508.6149997077882,0,0,0,68822,WMM1,1146693,false,false,999,image-keyboard-response,54
true,6,1,2,1,true,z,false,true,0.0-2.0-0.30-0.278-3.278,0,0,0,90,false,stim,false,2,914.2199996858835,0,0,1,68822,WMM1,1149132,false,false,1002,image-keyboard-response,55
true,6,0,2,2,false,d,true,false,0.0-2.0-0.31-0.279-3.279,0,0,0,81,false,stim,false,1,762.1700000017881,0,0,0,68822,WMM1,1151406,false,false,1005,image-keyboard-response,56
true,6,1,2,1,true,z,false,true,0.0-2.0-0.31-0.280-3.280,0,0,0,90,false,stim,false,2,309.96500002220273,0,0,1,68822,WMM1,1153247,false,false,1008,image-keyboard-response,57
true,6,1,2,0,false,q,true,false,0.0-2.0-0.31-0.281-3.281,0,0,0,90,false,stim,false,2,308.14999993890524,0,0,2,68822,WMM1,1155079,false,false,1011,image-keyboard-response,58
true,6,1,2,2,false,d,false,true,0.0-2.0-0.31-0.282-3.282,0,0,0,90,false,stim,true,1,386.629999615252,0,0,0,68822,WMM1,1156979,false,true,1014,image-keyboard-response,59
true,6,2,2,0,false,q,false,true,0.0-2.0-0.31-0.283-3.283,0,0,0,68,false,stim,true,2,1207.810000050813,0,0,2,68822,WMM1,1159704,false,true,1017,image-keyboard-response,60
true,7,1,4,0,false,q,false,false,0.0-2.0-0.31-0.284-3.284,0,0,0,90,true,stim,true,1,1346.6400001198053,0,0,1,68822,WMM1,1162576,false,false,1020,image-keyboard-response,1
true,7,2,4,0,false,q,false,false,0.0-2.0-0.31-0.285-3.285,0,0,0,68,false,stim,true,2,1143.4899996966124,0,0,0,68822,WMM1,1165252,false,false,1023,image-keyboard-response,2
true,7,1,4,0,false,q,false,false,0.0-2.0-0.31-0.286-3.286,0,0,0,90,false,stim,true,1,1322.209999896586,0,0,1,68822,WMM1,1168107,false,false,1026,image-keyboard-response,3
true,7,1,4,1,true,z,false,true,0.0-2.0-0.31-0.287-3.287,0,0,0,90,false,stim,false,0,1096.6050000861287,0,0,2,68822,WMM1,1170720,false,false,1029,image-keyboard-response,4
true,7,0,4,0,true,q,false,true,0.0-2.0-0.32-0.288-3.288,0,0,0,81,false,stim,false,2,1153.1200003810227,0,0,0,68822,WMM1,1173403,false,false,1032,image-keyboard-response,5
true,7,0,4,0,true,q,false,true,0.0-2.0-0.32-0.289-3.289,0,0,0,81,false,stim,false,2,776.7300000414252,0,0,0,68822,WMM1,1175706,false,false,1035,image-keyboard-response,6
true,7,1,4,0,false,q,false,false,0.0-2.0-0.32-0.290-3.290,0,0,0,90,false,stim,true,1,1100.6849999539554,0,0,1,68822,WMM1,1178325,false,false,1038,image-keyboard-response,7
true,7,2,4,1,false,z,true,false,0.0-2.0-0.32-0.291-3.291,0,0,0,68,false,stim,false,0,1065.6849998049438,0,0,2,68822,WMM1,1180912,false,false,1041,image-keyboard-response,8
true,7,1,4,0,false,q,false,false,0.0-2.0-0.32-0.292-3.292,0,0,0,90,false,stim,true,1,2632.425000425428,0,0,1,68822,WMM1,1185079,false,false,1044,image-keyboard-response,9
true,7,2,4,1,false,z,true,false,0.0-2.0-0.32-0.293-3.293,0,0,0,68,false,stim,false,0,936.964999884367,0,0,2,68822,WMM1,1187547,false,false,1047,image-keyboard-response,10
true,7,1,4,1,true,z,false,false,0.0-2.0-0.32-0.294-3.294,0,0,0,90,false,stim,false,0,1677.3450002074242,0,0,2,68822,WMM1,1190760,false,true,1050,image-keyboard-response,11
true,7,0,4,0,true,q,false,true,0.0-2.0-0.32-0.295-3.295,0,0,0,81,false,stim,false,2,802.450000308454,0,0,0,68822,WMM1,1193085,false,false,1053,image-keyboard-response,12
true,7,0,4,0,true,q,false,true,0.0-2.0-0.32-0.296-3.296,0,0,0,81,false,stim,false,1,1058.28500026837,0,0,1,68822,WMM1,1195653,false,false,1056,image-keyboard-response,13
true,7,0,4,0,true,q,false,true,0.0-2.0-0.33-0.297-3.297,0,0,0,81,false,stim,false,1,597.5899999029934,0,0,1,68822,WMM1,1197779,false,false,1059,image-keyboard-response,14
true,7,0,4,0,true,q,false,false,0.0-2.0-0.33-0.298-3.298,0,0,0,81,false,stim,false,1,414.3249997869134,0,0,1,68822,WMM1,1199722,false,true,1062,image-keyboard-response,15
true,7,1,4,1,true,z,false,true,0.0-2.0-0.33-0.299-3.299,0,0,0,90,false,stim,false,0,2937.404999975115,0,0,2,68822,WMM1,1204184,false,false,1065,image-keyboard-response,16
true,7,0,4,0,true,q,false,true,0.0-2.0-0.33-0.300-3.300,0,0,0,81,false,stim,false,2,1244.8899997398257,0,0,0,68822,WMM1,1206950,false,false,1068,image-keyboard-response,17
true,7,1,4,1,true,z,false,true,0.0-2.0-0.33-0.301-3.301,0,0,0,90,false,stim,false,0,1708.7199999950826,0,0,2,68822,WMM1,1210181,false,false,1071,image-keyboard-response,18
true,7,0,4,0,true,q,false,true,0.0-2.0-0.33-0.302-3.302,0,0,0,81,false,stim,false,2,699.5050003752112,0,0,0,68822,WMM1,1212407,false,false,1074,image-keyboard-response,19
true,7,0,4,0,true,q,false,true,0.0-2.0-0.33-0.303-3.303,0,0,0,81,false,stim,false,2,784.514999948442,0,0,0,68822,WMM1,1214712,false,false,1077,image-keyboard-response,20
true,7,0,4,1,false,z,false,false,0.0-2.0-0.33-0.304-3.304,0,0,0,81,false,stim,true,0,664.0300001017749,0,0,2,68822,WMM1,1216913,false,false,1080,image-keyboard-response,21
true,7,1,4,0,false,q,false,false,0.0-2.0-0.33-0.305-3.305,0,0,0,90,false,stim,true,1,876.6999999061227,0,0,1,68822,WMM1,1219304,false,false,1083,image-keyboard-response,22
true,7,0,4,0,true,q,false,true,0.0-2.0-0.34-0.306-3.306,0,0,0,81,false,stim,false,2,967.0000001788139,0,1,0,68822,WMM1,1221802,false,false,1086,image-keyboard-response,23
true,7,0,4,1,false,z,false,false,0.0-2.0-0.34-0.307-3.307,0,0,0,81,false,stim,true,0,1152.1299998275936,0,0,2,68822,WMM1,1224490,false,false,1089,image-keyboard-response,24
true,7,1,4,0,false,q,false,false,0.0-2.0-0.34-0.308-3.308,0,0,0,90,false,stim,true,1,907.4949999339879,0,0,1,68822,WMM1,1226925,false,false,1092,image-keyboard-response,25
true,7,1,4,0,false,q,false,false,0.0-2.0-0.34-0.309-3.309,0,0,0,90,false,stim,true,1,511.27999974414706,0,0,1,68822,WMM1,1228969,false,false,1095,image-keyboard-response,26
true,7,0,4,1,false,z,false,false,0.0-2.0-0.34-0.310-3.310,0,0,0,81,false,stim,true,0,766.2400002591312,0,0,2,68822,WMM1,1231259,false,false,1098,image-keyboard-response,27
true,7,2,4,1,false,z,true,true,0.0-2.0-0.34-0.311-3.311,0,0,0,68,false,stim,false,0,488.80499973893166,0,0,2,68822,WMM1,1233279,false,true,1101,image-keyboard-response,28
true,7,1,4,0,false,q,true,false,0.0-2.0-0.34-0.312-3.312,0,0,0,90,false,stim,false,2,818.7950002029538,0,1,0,68822,WMM1,1235632,false,false,1104,image-keyboard-response,29
true,7,0,4,0,true,q,false,false,0.0-2.0-0.34-0.313-3.313,0,0,0,81,false,stim,false,2,830.9400002472103,0,1,0,68822,WMM1,1237989,false,true,1107,image-keyboard-response,30
true,8,2,3,2,true,d,false,true,0.0-2.0-0.34-0.314-3.314,1,0,0,68,true,stim,false,0,574.5199997909367,0,0,1,68822,WMM1,1240097,false,false,1110,image-keyboard-response,1
true,8,2,3,2,true,d,false,false,0.0-2.0-0.35-0.315-3.315,1,0,0,68,false,stim,false,0,345.7650002092123,0,0,1,68822,WMM1,1241965,false,true,1113,image-keyboard-response,2
true,8,2,3,0,false,q,true,false,0.0-2.0-0.35-0.316-3.316,1,0,0,68,false,stim,false,0,891.2249999120831,0,1,0,68822,WMM1,1244368,false,false,1116,image-keyboard-response,3
true,8,1,3,0,false,q,true,false,0.0-2.0-0.35-0.317-3.317,1,0,0,90,false,stim,false,0,890.3950001113117,0,1,0,68822,WMM1,1246790,false,false,1119,image-keyboard-response,4
true,8,2,3,0,false,q,true,false,0.0-2.0-0.35-0.318-3.318,1,0,0,68,false,stim,false,0,425.06999988108873,0,1,0,68822,WMM1,1248737,false,false,1122,image-keyboard-response,5
true,8,0,3,2,false,d,true,false,0.0-2.0-0.35-0.319-3.319,1,0,0,81,false,stim,false,1,355.13499984517694,0,0,2,68822,WMM1,1250603,false,false,1125,image-keyboard-response,6
true,8,1,3,2,false,d,true,false,0.0-2.0-0.35-0.320-3.320,1,0,0,90,false,stim,false,0,905.560000333935,0,0,1,68822,WMM1,1253037,false,false,1128,image-keyboard-response,7
true,8,1,3,2,false,d,false,true,0.0-2.0-0.35-0.321-3.321,1,0,0,90,false,stim,true,1,357.079999987036,0,0,2,68822,WMM1,1254925,false,true,1131,image-keyboard-response,8
true,8,1,3,2,false,d,false,true,0.0-2.0-0.35-0.322-3.322,1,0,0,90,false,stim,true,1,454.95499996468425,0,0,2,68822,WMM1,1256910,false,true,1134,image-keyboard-response,9
true,8,2,3,2,true,d,false,true,0.0-2.0-0.35-0.323-3.323,1,0,0,68,false,stim,false,0,1687.7850000746548,0,0,1,68822,WMM1,1260111,false,false,1137,image-keyboard-response,10
true,8,2,3,2,true,d,false,false,0.0-2.0-0.36-0.324-3.324,1,0,0,68,false,stim,false,0,704.7449997626245,0,0,1,68822,WMM1,1262338,false,true,1140,image-keyboard-response,11
true,8,1,3,2,false,d,false,false,0.0-2.0-0.36-0.325-3.325,1,0,0,90,false,stim,true,1,1421.1899996735156,0,0,2,68822,WMM1,1265288,false,false,1143,image-keyboard-response,12
true,8,2,3,0,false,q,true,false,0.0-2.0-0.36-0.326-3.326,1,0,0,68,false,stim,false,0,1043.2100002653897,0,1,0,68822,WMM1,1267862,false,false,1146,image-keyboard-response,13
true,8,0,3,0,true,q,false,true,0.0-2.0-0.36-0.327-3.327,1,0,0,81,false,stim,false,0,1519.780000206083,0,1,0,68822,WMM1,1270892,false,false,1149,image-keyboard-response,14
true,8,0,3,2,false,d,false,false,0.0-2.0-0.36-0.328-3.328,1,0,0,81,false,stim,true,0,1636.570000089705,0,0,1,68822,WMM1,1274052,false,false,1152,image-keyboard-response,15
true,8,0,3,0,true,q,false,true,0.0-2.0-0.36-0.329-3.329,1,0,0,81,false,stim,false,0,589.2500001937151,0,1,0,68822,WMM1,1276165,false,false,1155,image-keyboard-response,16
true,8,1,3,2,false,d,true,true,0.0-2.0-0.36-0.330-3.330,1,0,0,90,false,stim,false,0,961.9649997912347,0,0,1,68822,WMM1,1278657,false,true,1158,image-keyboard-response,17
true,8,2,3,2,true,d,false,true,0.0-2.0-0.36-0.331-3.331,1,0,0,68,false,stim,false,1,814.8600002750754,0,0,2,68822,WMM1,1280981,false,false,1161,image-keyboard-response,18
true,8,2,3,2,true,d,false,true,0.0-2.0-0.36-0.332-3.332,1,0,0,68,false,stim,false,1,1061.5850002504885,0,0,2,68822,WMM1,1283568,false,false,1164,image-keyboard-response,19
true,8,2,3,0,false,q,true,false,0.0-2.0-0.37-0.333-3.333,1,0,0,68,false,stim,false,0,594.6350004523993,0,1,0,68822,WMM1,1285685,false,false,1167,image-keyboard-response,20
true,8,1,3,0,false,q,true,true,0.0-2.0-0.37-0.334-3.334,1,0,0,90,false,stim,false,0,289.02999963611364,0,1,0,68822,WMM1,1287507,false,true,1170,image-keyboard-response,21
true,8,1,3,2,false,d,false,false,0.0-2.0-0.37-0.335-3.335,1,0,0,90,false,stim,true,1,1372.429999988526,0,0,2,68822,WMM1,1290416,false,false,1173,image-keyboard-response,22
true,8,0,3,2,false,d,false,false,0.0-2.0-0.37-0.336-3.336,1,0,0,81,false,stim,true,0,572.3749999888241,0,0,1,68822,WMM1,1292523,false,false,1176,image-keyboard-response,23
true,8,1,3,2,false,d,false,false,0.0-2.0-0.37-0.337-3.337,1,0,0,90,false,stim,true,1,168.75000018626451,0,0,2,68822,WMM1,1294212,false,false,1179,image-keyboard-response,24
true,8,2,3,2,true,d,false,true,0.0-2.0-0.37-0.338-3.338,1,0,0,68,false,stim,false,0,3.2350001856684685,0,0,1,68822,WMM1,1295750,false,false,1182,image-keyboard-response,25
true,8,2,3,2,true,d,false,true,0.0-2.0-0.37-0.339-3.339,1,0,0,68,false,stim,false,0,459.87999998033047,0,0,1,68822,WMM1,1297726,false,false,1185,image-keyboard-response,26
true,8,0,3,2,false,d,true,false,0.0-2.0-0.37-0.340-3.340,1,0,0,81,false,stim,false,1,1180.8650000020862,0,0,2,68822,WMM1,1300441,false,false,1188,image-keyboard-response,27
true,8,1,3,0,false,q,true,false,0.0-2.0-0.37-0.341-3.341,1,0,0,90,false,stim,false,0,982.3699998669326,0,1,0,68822,WMM1,1302957,false,false,1191,image-keyboard-response,28
true,8,2,3,2,true,d,false,true,0.0-2.0-0.38-0.342-3.342,1,0,0,68,false,stim,false,0,810.8299998566508,0,0,1,68822,WMM1,1305294,false,false,1194,image-keyboard-response,29
true,8,2,3,2,true,d,false,true,0.0-2.0-0.38-0.343-3.343,1,0,0,68,false,stim,false,0,665.5349996872246,0,0,1,68822,WMM1,1307487,false,false,1197,image-keyboard-response,30
true,8,1,3,0,false,q,true,false,0.0-2.0-0.38-0.344-3.344,1,0,0,90,false,stim,false,0,1585.7400000095367,0,1,0,68822,WMM1,1310606,false,false,1200,image-keyboard-response,31
true,8,2,3,2,true,d,false,true,0.0-2.0-0.38-0.345-3.345,1,0,0,68,false,stim,false,1,900.0399997457862,0,0,2,68822,WMM1,1313042,false,false,1203,image-keyboard-response,32
true,8,2,3,2,true,d,false,true,0.0-2.0-0.38-0.346-3.346,1,0,0,68,false,stim,false,1,795.549999922514,0,0,2,68822,WMM1,1315354,false,false,1206,image-keyboard-response,33
true,8,2,3,2,true,d,false,false,0.0-2.0-0.38-0.347-3.347,1,0,0,68,false,stim,false,0,704.290000256151,0,0,1,68822,WMM1,1317591,false,true,1209,image-keyboard-response,34
true,8,1,3,2,false,d,false,false,0.0-2.0-0.38-0.348-3.348,1,0,0,90,false,stim,true,1,506.00000005215406,0,0,2,68822,WMM1,1319622,false,false,1212,image-keyboard-response,35
true,8,1,3,0,false,q,true,false,0.0-2.0-0.38-0.349-3.349,1,0,0,90,false,stim,false,0,1013.2699999958277,0,1,0,68822,WMM1,1322162,false,false,1215,image-keyboard-response,36
true,8,2,3,0,false,q,true,false,0.0-2.0-0.38-0.350-3.350,1,0,0,68,false,stim,false,0,874.1600001230836,0,1,0,68822,WMM1,1324553,false,false,1218,image-keyboard-response,37
true,8,2,3,2,true,d,false,true,0.0-2.0-0.39-0.351-3.351,1,0,0,68,false,stim,false,0,1011.8100000545382,0,0,1,68822,WMM1,1327095,false,false,1221,image-keyboard-response,38
true,8,2,3,2,true,d,false,true,0.0-2.0-0.39-0.352-3.352,1,0,0,68,false,stim,false,1,702.4500002153218,0,0,2,68822,WMM1,1329328,false,false,1224,image-keyboard-response,39
true,8,2,3,0,false,q,true,false,0.0-2.0-0.39-0.353-3.353,1,0,0,68,false,stim,false,0,712.024999782443,0,1,0,68822,WMM1,1331559,false,false,1227,image-keyboard-response,40
true,8,0,3,0,true,q,false,true,0.0-2.0-0.39-0.354-3.354,1,0,0,81,false,stim,false,0,437.52000015228987,0,1,0,68822,WMM1,1333534,false,false,1230,image-keyboard-response,41
true,8,1,3,2,false,d,true,false,0.0-2.0-0.39-0.355-3.355,1,0,0,90,false,stim,false,0,923.7049999646842,0,0,1,68822,WMM1,1335992,false,false,1233,image-keyboard-response,42
true,8,1,3,2,false,d,false,false,0.0-2.0-0.39-0.356-3.356,1,0,0,90,false,stim,true,1,965.8649996854365,0,0,2,68822,WMM1,1338476,false,false,1236,image-keyboard-response,43
true,8,1,3,2,false,d,false,false,0.0-2.0-0.39-0.357-3.357,1,0,0,90,false,stim,true,1,947.7500002831221,0,0,2,68822,WMM1,1340941,false,false,1239,image-keyboard-response,44
true,8,1,3,0,false,q,true,false,0.0-2.0-0.39-0.358-3.358,1,0,0,90,false,stim,false,0,1331.5799999982119,0,1,0,68822,WMM1,1343796,false,false,1242,image-keyboard-response,45
true,8,2,3,2,true,d,false,true,0.0-2.0-0.39-0.359-3.359,1,0,0,68,false,stim,false,0,943.2100001722574,0,0,1,68822,WMM1,1346269,false,false,1245,image-keyboard-response,46
true,8,1,3,0,false,q,true,false,0.0-2.0-0.40-0.360-3.360,1,0,0,90,false,stim,false,0,1460.0450000725687,0,1,0,68822,WMM1,1349242,false,false,1248,image-keyboard-response,47
true,8,2,3,2,true,d,false,true,0.0-2.0-0.40-0.361-3.361,1,0,0,68,false,stim,false,0,529.4200000353158,0,0,1,68822,WMM1,1351286,false,false,1251,image-keyboard-response,48
true,8,2,3,2,true,d,false,true,0.0-2.0-0.40-0.362-3.362,1,0,0,68,false,stim,false,1,428.71000012382865,0,0,2,68822,WMM1,1353246,false,false,1254,image-keyboard-response,49
true,8,2,3,0,false,q,true,false,0.0-2.0-0.40-0.363-3.363,1,0,0,68,false,stim,false,0,929.279999807477,0,1,0,68822,WMM1,1355706,false,false,1257,image-keyboard-response,50
true,8,1,3,2,false,d,true,false,0.0-2.0-0.40-0.364-3.364,1,0,0,90,false,stim,false,0,791.3000001572073,0,0,1,68822,WMM1,1358023,false,false,1260,image-keyboard-response,51
true,8,2,3,2,true,d,false,true,0.0-2.0-0.40-0.365-3.365,1,0,0,68,false,stim,false,1,338.14499992877245,0,0,2,68822,WMM1,1359885,false,false,1263,image-keyboard-response,52
true,8,2,3,2,true,d,false,true,0.0-2.0-0.40-0.366-3.366,1,0,0,68,false,stim,false,1,428.3400001004338,0,0,2,68822,WMM1,1361834,false,false,1266,image-keyboard-response,53
true,8,0,3,2,false,d,false,false,0.0-2.0-0.40-0.367-3.367,1,0,0,81,false,stim,true,0,1457.545000128448,0,0,1,68822,WMM1,1364824,false,false,1269,image-keyboard-response,54
true,8,2,3,0,false,q,true,true,0.0-2.0-0.40-0.368-3.368,1,0,0,68,false,stim,false,0,1049.355000257492,0,0,0,68822,WMM1,1367396,false,true,1272,image-keyboard-response,55
true,8,1,3,2,false,d,true,false,0.0-2.0-0.41-0.369-3.369,1,0,0,90,false,stim,false,0,936.275000218302,0,0,1,68822,WMM1,1369867,false,false,1275,image-keyboard-response,56
true,8,2,3,2,true,d,false,true,0.0-2.0-0.41-0.370-3.370,1,0,0,68,false,stim,false,0,702.6100000366569,0,0,1,68822,WMM1,1372103,false,false,1278,image-keyboard-response,57
true,8,2,3,0,false,q,true,false,0.0-2.0-0.41-0.371-3.371,1,0,0,68,false,stim,false,0,1352.38999966532,0,0,0,68822,WMM1,1374988,false,false,1281,image-keyboard-response,58
true,8,1,3,0,false,q,true,false,0.0-2.0-0.41-0.372-3.372,1,0,0,90,false,stim,false,0,595.3349997289479,0,0,0,68822,WMM1,1377121,false,false,1284,image-keyboard-response,59
true,8,1,3,2,false,d,false,false,0.0-2.0-0.41-0.373-3.373,1,0,0,90,false,stim,true,1,422.4400003440678,0,0,2,68822,WMM1,1379077,false,false,1287,image-keyboard-response,60
true,9,1,2,1,true,z,false,true,0.0-2.0-0.41-0.374-3.374,0,0,0,90,true,stim,false,2,1539.9850001558661,0,0,1,68822,WMM1,1382151,false,false,1290,image-keyboard-response,1
true,9,1,2,2,false,d,true,false,0.0-2.0-0.41-0.375-3.375,0,0,0,90,false,stim,false,0,673.2599996030331,0,0,0,68822,WMM1,1384346,false,false,1293,image-keyboard-response,2
true,9,1,2,0,false,q,true,false,0.0-2.0-0.41-0.376-3.376,0,0,0,90,false,stim,false,2,1486.4300000481308,0,0,2,68822,WMM1,1387364,false,false,1296,image-keyboard-response,3
true,9,0,2,0,true,q,false,true,0.0-2.0-0.41-0.377-3.377,0,0,0,81,false,stim,false,2,629.5449999161065,0,0,2,68822,WMM1,1389518,false,false,1299,image-keyboard-response,4
true,9,0,2,0,true,q,false,true,0.0-2.0-0.42-0.378-3.378,0,0,0,81,false,stim,false,2,435.8800002373755,0,0,2,68822,WMM1,1391490,false,false,1302,image-keyboard-response,5
true,9,0,2,1,false,z,true,false,0.0-2.0-0.42-0.379-3.379,0,0,0,81,false,stim,false,2,756.7799999378622,0,0,1,68822,WMM1,1393773,false,false,1305,image-keyboard-response,6
true,9,2,2,0,false,q,false,false,0.0-2.0-0.42-0.380-3.380,0,0,0,68,false,stim,true,2,959.8250002600253,0,0,2,68822,WMM1,1396245,false,false,1308,image-keyboard-response,7
true,9,1,2,2,false,d,true,true,0.0-2.0-0.42-0.381-3.381,0,0,0,90,false,stim,false,0,387.42499984800816,0,0,0,68822,WMM1,1398161,false,true,1311,image-keyboard-response,8
true,9,1,2,2,false,d,true,false,0.0-2.0-0.42-0.382-3.382,0,0,0,90,false,stim,false,0,330.2150000818074,0,0,0,68822,WMM1,1400028,false,false,1314,image-keyboard-response,9
true,9,1,2,1,true,z,false,true,0.0-2.0-0.42-0.383-3.383,0,0,0,90,false,stim,false,2,549.4599998928607,0,0,1,68822,WMM1,1402102,false,false,1317,image-keyboard-response,10
false,9,-1,2,2,false,d,true,false,0.0-2.0-0.42-0.384-3.384,0,0,0,,false,stim,false,0,,0,0,0,68822,WMM1,1406648,false,false,1320,image-keyboard-response,11
true,9,1,2,1,true,z,false,true,0.0-2.0-0.42-0.385-3.385,0,0,0,90,false,stim,false,2,895.0700000859797,0,0,1,68822,WMM1,1409067,false,false,1323,image-keyboard-response,12
true,9,0,2,0,true,q,false,true,0.0-2.0-0.42-0.386-3.386,0,0,0,81,false,stim,false,2,1412.054999731481,0,0,2,68822,WMM1,1411997,false,false,1326,image-keyboard-response,13
true,9,1,2,0,false,q,true,false,0.0-2.0-0.43-0.387-3.387,0,0,0,90,false,stim,false,2,1646.4050002396107,0,0,2,68822,WMM1,1415155,false,false,1329,image-keyboard-response,14
true,9,2,2,1,false,z,false,false,0.0-2.0-0.43-0.388-3.388,0,0,0,68,false,stim,true,2,779.0950001217425,0,0,1,68822,WMM1,1417455,false,false,1332,image-keyboard-response,15
true,9,0,2,1,false,z,true,false,0.0-2.0-0.43-0.389-3.389,0,0,0,81,false,stim,false,2,686.2150002270937,0,0,1,68822,WMM1,1419669,false,false,1335,image-keyboard-response,16
true,9,1,2,2,false,d,true,false,0.0-2.0-0.43-0.390-3.390,0,0,0,90,false,stim,false,0,590.909999795258,0,0,0,68822,WMM1,1421787,false,false,1338,image-keyboard-response,17
true,9,2,2,0,false,q,false,false,0.0-2.0-0.43-0.391-3.391,0,0,0,68,false,stim,true,2,388.46000004559755,0,0,2,68822,WMM1,1423708,false,false,1341,image-keyboard-response,18
true,9,1,2,1,true,z,false,true,0.0-2.0-0.43-0.392-3.392,0,0,0,90,false,stim,false,2,1952.8399999253452,0,0,1,68822,WMM1,1427189,false,false,1344,image-keyboard-response,19
true,9,1,2,2,false,d,true,false,0.0-2.0-0.43-0.393-3.393,0,0,0,90,false,stim,false,0,753.9949999190867,0,0,0,68822,WMM1,1429462,false,false,1347,image-keyboard-response,20
true,9,0,2,2,false,d,false,false,0.0-2.0-0.43-0.394-3.394,0,0,0,81,false,stim,true,0,530.2149998024106,0,0,0,68822,WMM1,1431519,false,false,1350,image-keyboard-response,21
true,9,1,2,0,false,q,true,false,0.0-2.0-0.43-0.395-3.395,0,0,0,90,false,stim,false,2,972.1900001168251,0,0,2,68822,WMM1,1434025,false,false,1353,image-keyboard-response,22
true,9,2,2,2,true,d,false,true,0.0-2.0-0.44-0.396-3.396,0,0,0,68,false,stim,false,0,1156.064999755472,0,0,0,68822,WMM1,1436695,false,false,1356,image-keyboard-response,23
true,9,2,2,0,false,q,false,false,0.0-2.0-0.44-0.397-3.397,0,0,0,68,false,stim,true,2,790.3800001367927,0,0,2,68822,WMM1,1439021,false,false,1359,image-keyboard-response,24
true,9,1,2,0,false,q,true,false,0.0-2.0-0.44-0.398-3.398,0,0,0,90,false,stim,false,2,713.7400000356138,0,0,2,68822,WMM1,1441266,false,false,1362,image-keyboard-response,25
true,9,0,2,2,false,d,false,false,0.0-2.0-0.44-0.399-3.399,0,0,0,81,false,stim,true,0,342.3250000923872,0,0,0,68822,WMM1,1443143,false,false,1365,image-keyboard-response,26
true,9,2,2,0,false,q,false,false,0.0-2.0-0.44-0.400-3.400,0,0,0,68,false,stim,true,2,513.3549999445677,0,0,2,68822,WMM1,1445178,false,false,1368,image-keyboard-response,27
true,9,1,2,1,true,z,false,true,0.0-2.0-0.44-0.401-3.401,0,0,0,90,false,stim,false,2,1415.3200001455843,0,0,1,68822,WMM1,1448130,false,false,1371,image-keyboard-response,28
true,9,1,2,2,false,d,true,false,0.0-2.0-0.44-0.402-3.402,0,0,0,90,false,stim,false,0,1199.435000307858,0,0,0,68822,WMM1,1450868,false,false,1374,image-keyboard-response,29
true,9,0,2,1,false,z,true,false,0.0-2.0-0.44-0.403-3.403,0,0,0,81,false,stim,false,2,802.339999936521,0,0,1,68822,WMM1,1453210,false,false,1377,image-keyboard-response,30
true,9,2,2,1,false,z,false,false,0.0-2.0-0.44-0.404-3.404,0,0,0,68,false,stim,true,2,498.9050002768636,0,0,1,68822,WMM1,1455237,false,false,1380,image-keyboard-response,31
true,9,1,2,2,false,d,true,false,0.0-2.0-0.45-0.405-3.405,0,0,0,90,false,stim,false,0,1230.1449999213219,0,0,0,68822,WMM1,1457995,false,false,1383,image-keyboard-response,32
true,9,0,2,1,false,z,true,false,0.0-2.0-0.45-0.406-3.406,0,0,0,81,false,stim,false,2,264.6699999459088,0,0,1,68822,WMM1,1459795,false,false,1386,image-keyboard-response,33
true,9,2,2,1,false,z,false,false,0.0-2.0-0.45-0.407-3.407,0,0,0,68,false,stim,true,2,514.485000167042,0,0,1,68822,WMM1,1461830,false,false,1389,image-keyboard-response,34
true,9,2,2,2,true,d,false,true,0.0-2.0-0.45-0.408-3.408,0,0,0,68,false,stim,false,0,1749.8600003309548,0,0,0,68822,WMM1,1465102,false,false,1392,image-keyboard-response,35
false,9,-1,2,0,false,q,true,false,0.0-2.0-0.45-0.409-3.409,0,0,0,,false,stim,false,2,,0,0,2,68822,WMM1,1469626,false,false,1395,image-keyboard-response,36
true,9,1,2,1,true,z,false,true,0.0-2.0-0.45-0.410-3.410,0,0,0,90,false,stim,false,2,385.2599998936057,0,0,1,68822,WMM1,1471542,false,false,1398,image-keyboard-response,37
true,9,2,2,2,true,d,false,true,0.0-2.0-0.45-0.411-3.411,0,0,0,68,false,stim,false,0,1469.8599996045232,0,0,0,68822,WMM1,1474562,false,false,1401,image-keyboard-response,38
true,9,1,2,0,false,q,true,false,0.0-2.0-0.45-0.412-3.412,0,0,0,90,false,stim,false,2,726.2300001457334,0,0,2,68822,WMM1,1476803,false,false,1404,image-keyboard-response,39
true,9,0,2,0,true,q,false,false,0.0-2.0-0.45-0.413-3.413,0,0,0,81,false,stim,false,2,1921.8350001610816,0,0,2,68822,WMM1,1480252,false,true,1407,image-keyboard-response,40
true,9,2,2,1,false,z,false,false,0.0-2.0-0.46-0.414-3.414,0,0,0,68,false,stim,true,2,1810.3350000455976,0,0,1,68822,WMM1,1483589,false,false,1410,image-keyboard-response,41
true,9,1,2,2,false,d,true,false,0.0-2.0-0.46-0.415-3.415,0,0,0,90,false,stim,false,0,306.3699998892844,0,0,0,68822,WMM1,1485430,false,false,1413,image-keyboard-response,42
true,9,0,2,1,false,z,true,false,0.0-2.0-0.46-0.416-3.416,0,0,0,81,false,stim,false,2,506.0050003230572,0,0,1,68822,WMM1,1487472,false,false,1416,image-keyboard-response,43
true,9,1,2,0,false,q,true,false,0.0-2.0-0.46-0.417-3.417,0,0,0,90,false,stim,false,2,1881.095000077039,0,0,2,68822,WMM1,1490877,false,false,1419,image-keyboard-response,44
true,9,2,2,0,false,q,false,false,0.0-2.0-0.46-0.418-3.418,0,0,0,68,false,stim,true,2,943.6150002293289,0,0,2,68822,WMM1,1493347,false,false,1422,image-keyboard-response,45
false,9,-1,2,2,false,d,true,false,0.0-2.0-0.46-0.419-3.419,0,0,0,,false,stim,false,0,,0,0,0,68822,WMM1,1497889,false,false,1425,image-keyboard-response,46
true,9,1,2,0,false,q,true,false,0.0-2.0-0.46-0.420-3.420,0,0,0,90,false,stim,false,2,1084.7800001502037,0,0,2,68822,WMM1,1500493,false,false,1428,image-keyboard-response,47
true,9,2,2,2,true,d,false,true,0.0-2.0-0.46-0.421-3.421,0,0,0,68,false,stim,false,0,629.5299995690584,0,0,0,68822,WMM1,1502648,false,false,1431,image-keyboard-response,48
true,9,2,2,1,false,z,false,false,0.0-2.0-0.46-0.422-3.422,0,0,0,68,false,stim,true,2,1257.149999961257,0,0,1,68822,WMM1,1505431,false,false,1434,image-keyboard-response,49
true,9,2,2,2,true,d,false,true,0.0-2.0-0.47-0.423-3.423,0,0,0,68,false,stim,false,0,604.9700002186,0,0,0,68822,WMM1,1507565,false,false,1437,image-keyboard-response,50
true,9,2,2,2,true,d,false,true,0.0-2.0-0.47-0.424-3.424,0,0,0,68,false,stim,false,0,564.1350001096725,0,0,0,68822,WMM1,1509662,false,false,1440,image-keyboard-response,51
true,9,2,2,0,false,q,false,false,0.0-2.0-0.47-0.425-3.425,0,0,0,68,false,stim,true,2,1332.0900001563132,0,0,2,68822,WMM1,1512523,false,false,1443,image-keyboard-response,52
true,9,1,2,2,false,d,true,false,0.0-2.0-0.47-0.426-3.426,0,0,0,90,false,stim,false,0,697.2050000913441,0,0,0,68822,WMM1,1514745,false,false,1446,image-keyboard-response,53
true,9,2,2,0,false,q,false,false,0.0-2.0-0.47-0.427-3.427,0,0,0,68,false,stim,true,2,388.46000004559755,0,0,2,68822,WMM1,1516661,false,false,1449,image-keyboard-response,54
true,9,0,2,0,true,q,false,true,0.0-2.0-0.47-0.428-3.428,0,0,0,81,false,stim,false,2,225.52999993786216,0,0,2,68822,WMM1,1518420,false,false,1452,image-keyboard-response,55
true,9,0,2,1,false,z,true,false,0.0-2.0-0.47-0.429-3.429,0,0,0,81,false,stim,false,2,393.9249999821186,0,0,1,68822,WMM1,1520332,false,false,1455,image-keyboard-response,56
true,9,0,2,1,false,z,true,false,0.0-2.0-0.47-0.430-3.430,0,0,0,81,false,stim,false,2,772.3699999041855,0,0,1,68822,WMM1,1522627,false,false,1458,image-keyboard-response,57
true,9,0,2,1,false,z,true,false,0.0-2.0-0.47-0.431-3.431,0,0,0,81,false,stim,false,2,697.8150000795722,0,0,1,68822,WMM1,1524854,false,false,1461,image-keyboard-response,58
true,9,2,2,2,true,d,false,true,0.0-2.0-0.48-0.432-3.432,0,0,0,68,false,stim,false,0,399.1300002671778,0,0,0,68822,WMM1,1526787,false,false,1464,image-keyboard-response,59
true,9,2,2,1,false,z,false,false,0.0-2.0-0.48-0.433-3.433,0,0,0,68,false,stim,true,2,653.1850001774728,0,0,1,68822,WMM1,1528968,false,false,1467,image-keyboard-response,60
true,10,2,1,0,false,q,true,true,0.0-2.0-0.48-0.434-3.434,0,0,0,68,true,stim,false,1,553.2800001092255,0,0,1,68822,WMM1,1531042,false,true,1470,image-keyboard-response,1
true,10,2,1,2,true,d,false,true,0.0-2.0-0.48-0.435-3.435,0,0,0,68,false,stim,false,0,1275.7100001908839,0,0,2,68822,WMM1,1533845,false,false,1473,image-keyboard-response,2
true,10,2,1,0,false,q,false,false,0.0-2.0-0.48-0.436-3.436,0,0,0,68,false,stim,true,2,640.5150000937283,0,0,0,68822,WMM1,1536007,false,false,1476,image-keyboard-response,3
true,10,2,1,0,false,q,true,false,0.0-2.0-0.48-0.437-3.437,0,0,0,68,false,stim,false,1,1674.6350000612438,0,0,1,68822,WMM1,1539213,false,false,1479,image-keyboard-response,4
true,10,2,1,2,true,d,false,true,0.0-2.0-0.48-0.438-3.438,0,0,0,68,false,stim,false,0,270.5699997022748,0,0,2,68822,WMM1,1541015,false,false,1482,image-keyboard-response,5
true,10,2,1,0,false,q,false,false,0.0-2.0-0.48-0.439-3.439,0,0,0,68,false,stim,true,2,201.03499991819263,0,0,0,68822,WMM1,1542738,false,false,1485,image-keyboard-response,6
true,10,1,1,2,false,d,true,false,0.0-2.0-0.48-0.440-3.440,0,0,0,90,false,stim,false,0,466.200000140816,0,0,2,68822,WMM1,1544738,false,false,1488,image-keyboard-response,7
true,10,0,1,0,true,q,false,true,0.0-2.0-0.49-0.441-3.441,0,0,0,81,false,stim,false,2,225.24000005796552,0,0,0,68822,WMM1,1546477,false,false,1491,image-keyboard-response,8
true,10,0,1,0,true,q,false,true,0.0-2.0-0.49-0.442-3.442,0,0,0,81,false,stim,false,2,543.9300001598895,0,0,0,68822,WMM1,1548538,false,false,1494,image-keyboard-response,9
true,10,2,1,0,false,q,true,false,0.0-2.0-0.49-0.443-3.443,0,0,0,68,false,stim,false,1,966.9349999167025,0,0,1,68822,WMM1,1551013,false,false,1497,image-keyboard-response,10
true,10,0,1,2,false,d,false,false,0.0-2.0-0.49-0.444-3.444,0,0,0,81,false,stim,true,0,199.5500000193715,0,0,2,68822,WMM1,1552737,false,false,1500,image-keyboard-response,11
true,10,2,1,0,false,q,true,false,0.0-2.0-0.49-0.445-3.445,0,0,0,68,false,stim,false,1,517.1099998988211,0,0,1,68822,WMM1,1554787,false,false,1503,image-keyboard-response,12
true,10,2,1,2,true,d,false,true,0.0-2.0-0.49-0.446-3.446,0,0,0,68,false,stim,false,0,1091.550000011921,0,0,2,68822,WMM1,1557412,false,false,1506,image-keyboard-response,13
true,10,2,1,0,false,q,false,false,0.0-2.0-0.49-0.447-3.447,0,0,0,68,false,stim,true,2,808.4950000047684,0,0,0,68822,WMM1,1559737,false,false,1509,image-keyboard-response,14
true,10,0,1,2,false,d,false,false,0.0-2.0-0.49-0.448-3.448,0,0,0,81,false,stim,true,0,553.6699998192489,0,0,2,68822,WMM1,1561813,false,false,1512,image-keyboard-response,15
true,10,2,1,0,false,q,true,false,0.0-2.0-0.49-0.449-3.449,0,0,0,68,false,stim,false,1,470.57999996468425,0,0,1,68822,WMM1,1563807,false,false,1515,image-keyboard-response,16
true,10,2,1,2,true,d,false,true,0.0-2.0-0.50-0.450-3.450,0,0,0,68,false,stim,false,0,319.3199997767806,0,0,2,68822,WMM1,1565641,false,false,1518,image-keyboard-response,17
true,10,2,1,0,false,q,false,false,0.0-2.0-0.50-0.451-3.451,0,0,0,68,false,stim,true,2,589.1300002112985,0,0,0,68822,WMM1,1567757,false,false,1521,image-keyboard-response,18
true,10,2,1,2,true,d,false,true,0.0-2.0-0.50-0.452-3.452,0,0,0,68,false,stim,false,0,747.7350002154708,0,0,2,68822,WMM1,1570020,false,false,1524,image-keyboard-response,19
true,10,0,1,0,true,q,false,true,0.0-2.0-0.50-0.453-3.453,0,0,0,81,false,stim,false,1,706.7700000479817,0,0,1,68822,WMM1,1572256,false,false,1527,image-keyboard-response,20
true,10,2,1,0,false,q,true,false,0.0-2.0-0.50-0.454-3.454,0,0,0,68,false,stim,false,1,1062.065000180155,0,0,1,68822,WMM1,1574844,false,false,1530,image-keyboard-response,21
true,10,0,1,0,true,q,false,true,0.0-2.0-0.50-0.455-3.455,0,0,0,81,false,stim,false,2,727.8649997897446,0,0,0,68822,WMM1,1577096,false,false,1533,image-keyboard-response,22
true,10,0,1,0,true,q,false,true,0.0-2.0-0.50-0.456-3.456,0,0,0,81,false,stim,false,2,492.7400001324713,0,0,0,68822,WMM1,1579126,false,false,1536,image-keyboard-response,23
true,10,0,1,0,true,q,false,true,0.0-2.0-0.50-0.457-3.457,0,0,0,81,false,stim,false,1,604.8799999989569,0,0,1,68822,WMM1,1581266,false,false,1539,image-keyboard-response,24
true,10,0,1,2,false,d,false,false,0.0-2.0-0.50-0.458-3.458,0,0,0,81,false,stim,true,0,635.7999998144805,0,0,2,68822,WMM1,1583435,false,false,1542,image-keyboard-response,25
true,10,2,1,2,true,d,false,true,0.0-2.0-0.51-0.459-3.459,0,0,0,68,false,stim,false,0,796.8699997290969,0,0,2,68822,WMM1,1585758,false,false,1545,image-keyboard-response,26
true,10,2,1,0,false,q,true,false,0.0-2.0-0.51-0.460-3.460,0,0,0,68,false,stim,false,1,505.3150001913309,0,0,1,68822,WMM1,1587781,false,false,1548,image-keyboard-response,27
true,10,0,1,2,false,d,false,false,0.0-2.0-0.51-0.461-3.461,0,0,0,81,false,stim,true,0,185.9050001949072,0,0,2,68822,WMM1,1589490,false,false,1551,image-keyboard-response,28
true,10,2,1,0,false,q,true,false,0.0-2.0-0.51-0.462-3.462,0,0,0,68,false,stim,false,1,660.2699998766184,0,0,1,68822,WMM1,1591678,false,false,1554,image-keyboard-response,29
true,10,0,1,2,false,d,false,false,0.0-2.0-0.51-0.463-3.463,0,0,0,81,false,stim,true,0,681.6300000064075,0,0,2,68822,WMM1,1593885,false,false,1557,image-keyboard-response,30
true,10,2,1,0,false,q,false,false,0.0-2.0-0.51-0.464-3.464,0,0,0,68,false,stim,true,2,412.3999997973442,0,0,0,68822,WMM1,1595828,false,false,1560,image-keyboard-response,31
true,10,1,1,0,false,q,false,false,0.0-2.0-0.51-0.465-3.465,0,0,0,90,false,stim,true,1,1559.2200001701713,0,0,1,68822,WMM1,1598904,false,false,1563,image-keyboard-response,32
true,10,2,1,0,false,q,false,false,0.0-2.0-0.51-0.466-3.466,0,0,0,68,false,stim,true,2,225.83500016480684,0,0,0,68822,WMM1,1600646,false,false,1566,image-keyboard-response,33
true,10,2,1,0,false,q,false,false,0.0-2.0-0.51-0.467-3.467,0,0,0,68,false,stim,true,2,596.0499998182058,0,0,0,68822,WMM1,1602778,false,false,1569,image-keyboard-response,34
true,10,0,1,0,true,q,false,false,0.0-2.0-0.52-0.468-3.468,0,0,0,81,false,stim,false,2,311.8050000630319,0,0,0,68822,WMM1,1604617,false,true,1572,image-keyboard-response,35
true,10,1,1,0,false,q,false,false,0.0-2.0-0.52-0.469-3.469,0,0,0,90,false,stim,true,1,1677.450000308454,0,0,1,68822,WMM1,1607824,false,false,1575,image-keyboard-response,36
true,10,2,1,2,true,d,false,true,0.0-2.0-0.52-0.470-3.470,0,0,0,68,false,stim,false,0,552.5050000287592,0,0,2,68822,WMM1,1609912,false,false,1578,image-keyboard-response,37
true,10,2,1,2,true,d,false,true,0.0-2.0-0.52-0.471-3.471,0,0,0,68,false,stim,false,0,298.3499998226762,0,0,2,68822,WMM1,1611733,false,false,1581,image-keyboard-response,38
true,10,2,1,2,true,d,false,true,0.0-2.0-0.52-0.472-3.472,0,0,0,68,false,stim,false,0,411.1349997110665,0,0,2,68822,WMM1,1613680,false,false,1584,image-keyboard-response,39
true,10,2,1,0,false,q,false,false,0.0-2.0-0.52-0.473-3.473,0,0,0,68,false,stim,true,2,370.5250001512468,0,0,0,68822,WMM1,1615583,false,false,1587,image-keyboard-response,40
true,10,1,1,0,false,q,false,false,0.0-2.0-0.52-0.474-3.474,0,0,0,90,false,stim,true,1,747.4199999123812,0,0,1,68822,WMM1,1617860,false,false,1590,image-keyboard-response,41
true,10,2,1,0,false,q,true,false,0.0-2.0-0.52-0.475-3.475,0,0,0,68,false,stim,false,1,542.9799999110401,0,0,1,68822,WMM1,1619936,false,false,1593,image-keyboard-response,42
true,10,0,1,0,true,q,false,true,0.0-2.0-0.52-0.476-3.476,0,0,0,81,false,stim,false,2,1151.9549996592104,0,0,0,68822,WMM1,1622619,false,false,1596,image-keyboard-response,43
true,10,0,1,0,true,q,false,true,0.0-2.0-0.53-0.477-3.477,0,0,0,81,false,stim,false,2,374.210000038147,0,0,0,68822,WMM1,1624522,false,false,1599,image-keyboard-response,44
true,10,0,1,0,true,q,false,false,0.0-2.0-0.53-0.478-3.478,0,0,0,81,false,stim,false,2,497.78000032529235,0,0,0,68822,WMM1,1626551,false,true,1602,image-keyboard-response,45
true,10,1,1,0,false,q,false,false,0.0-2.0-0.53-0.479-3.479,0,0,0,90,false,stim,true,1,2201.684999745339,0,0,1,68822,WMM1,1630269,false,false,1605,image-keyboard-response,46
true,10,0,1,0,true,q,false,true,0.0-2.0-0.53-0.480-3.480,0,0,0,81,false,stim,false,2,772.7949996478856,0,0,0,68822,WMM1,1632558,false,false,1608,image-keyboard-response,47
true,10,2,1,2,true,d,false,true,0.0-2.0-0.53-0.481-3.481,0,0,0,68,false,stim,false,0,1092.5650000572205,0,0,2,68822,WMM1,1635179,false,false,1611,image-keyboard-response,48
true,10,2,1,0,false,q,true,false,0.0-2.0-0.53-0.482-3.482,0,0,0,68,false,stim,false,1,1226.3350002467632,0,0,1,68822,WMM1,1637942,false,false,1614,image-keyboard-response,49
true,10,2,1,2,true,d,false,true,0.0-2.0-0.53-0.483-3.483,0,0,0,68,false,stim,false,0,2399.825000204146,0,0,2,68822,WMM1,1641868,false,false,1617,image-keyboard-response,50
true,10,1,1,2,false,d,true,true,0.0-2.0-0.53-0.484-3.484,0,0,0,90,false,stim,false,0,1265.6900002621114,0,0,2,68822,WMM1,1644663,false,true,1620,image-keyboard-response,51
true,10,1,1,0,false,q,false,false,0.0-2.0-0.53-0.485-3.485,0,0,0,90,false,stim,true,1,2081.8150001578033,0,0,1,68822,WMM1,1648278,false,false,1623,image-keyboard-response,52
true,10,2,1,0,false,q,true,false,0.0-2.0-0.54-0.486-3.486,0,0,0,68,false,stim,false,1,632.8849997371435,0,0,1,68822,WMM1,1650432,false,false,1626,image-keyboard-response,53
true,10,0,1,0,true,q,false,true,0.0-2.0-0.54-0.487-3.487,0,0,0,81,false,stim,false,2,896.3049999438226,0,0,0,68822,WMM1,1652842,false,false,1629,image-keyboard-response,54
true,10,0,1,0,true,q,false,true,0.0-2.0-0.54-0.488-3.488,0,0,0,81,false,stim,false,2,1022.9350002482533,0,0,0,68822,WMM1,1655390,false,false,1632,image-keyboard-response,55
true,10,0,1,0,true,q,false,true,0.0-2.0-0.54-0.489-3.489,0,0,0,81,false,stim,false,2,1085.375000257045,0,0,0,68822,WMM1,1658003,false,false,1635,image-keyboard-response,56
true,10,0,1,2,false,d,false,false,0.0-2.0-0.54-0.490-3.490,0,0,0,81,false,stim,true,0,763.9800002798438,0,0,2,68822,WMM1,1660292,false,false,1638,image-keyboard-response,57
true,10,2,1,2,true,d,false,true,0.0-2.0-0.54-0.491-3.491,0,0,0,68,false,stim,false,0,567.1149999834597,0,0,2,68822,WMM1,1662384,false,false,1641,image-keyboard-response,58
true,10,2,1,0,false,q,true,false,0.0-2.0-0.54-0.492-3.492,0,0,0,68,false,stim,false,1,925.420000217855,0,0,1,68822,WMM1,1664828,false,false,1644,image-keyboard-response,59
true,10,1,1,0,false,q,false,false,0.0-2.0-0.54-0.493-3.493,0,0,0,90,false,stim,true,1,1026.2450003065169,0,0,1,68822,WMM1,1667378,false,false,1647,image-keyboard-response,60
false,11,-1,2,0,false,q,true,false,0.0-2.0-0.54-0.494-3.494,0,0,0,,true,stim,false,2,,0,0,2,68822,WMM1,1671924,false,false,1650,image-keyboard-response,1
true,11,2,2,1,false,z,true,false,0.0-2.0-0.55-0.495-3.495,0,0,0,68,false,stim,false,0,260.4600000195205,0,0,1,68822,WMM1,1673717,false,false,1653,image-keyboard-response,2
true,11,1,2,0,false,q,true,false,0.0-2.0-0.55-0.496-3.496,0,0,0,90,false,stim,false,2,306.59000016748905,0,0,2,68822,WMM1,1675555,false,false,1656,image-keyboard-response,3
true,11,2,2,1,false,z,true,false,0.0-2.0-0.55-0.497-3.497,0,0,0,68,false,stim,false,0,637.8299999050796,0,0,1,68822,WMM1,1677716,false,false,1659,image-keyboard-response,4
true,11,2,2,0,false,q,false,false,0.0-2.0-0.55-0.498-3.498,0,0,0,68,false,stim,true,2,1332.5849999673665,0,0,2,68822,WMM1,1680582,false,false,1662,image-keyboard-response,5
true,11,0,2,2,false,d,false,false,0.0-2.0-0.55-0.499-3.499,0,0,0,81,false,stim,true,0,656.8550001829863,0,0,0,68822,WMM1,1682766,false,false,1665,image-keyboard-response,6
true,11,2,2,2,true,d,false,true,0.0-2.0-0.55-0.500-3.500,0,0,0,68,false,stim,false,0,527.550000231713,0,0,0,68822,WMM1,1684825,false,false,1668,image-keyboard-response,7
true,11,0,2,2,false,d,false,true,0.0-2.0-0.55-0.501-3.501,0,0,0,81,false,stim,true,0,1020.6050002016127,0,0,0,68822,WMM1,1687376,false,true,1671,image-keyboard-response,8
true,11,1,2,0,false,q,true,false,0.0-2.0-0.55-0.502-3.502,0,0,0,90,false,stim,false,2,1697.6649998687208,0,0,2,68822,WMM1,1690609,false,false,1674,image-keyboard-response,9
true,11,2,2,1,false,z,true,false,0.0-2.0-0.55-0.503-3.503,0,0,0,68,false,stim,false,0,563.7550000101328,0,0,1,68822,WMM1,1692701,false,false,1677,image-keyboard-response,10
true,11,0,2,2,false,d,false,false,0.0-2.0-0.56-0.504-3.504,0,0,0,81,false,stim,true,0,1404.2850001715124,0,0,0,68822,WMM1,1695626,false,false,1680,image-keyboard-response,11
true,11,2,2,0,false,q,false,false,0.0-2.0-0.56-0.505-3.505,0,0,0,68,false,stim,true,2,468.84500002488494,0,0,2,68822,WMM1,1697621,false,false,1683,image-keyboard-response,12
true,11,0,2,2,false,d,false,false,0.0-2.0-0.56-0.506-3.506,0,0,0,81,false,stim,true,0,133.755000308156,0,0,0,68822,WMM1,1699284,false,false,1686,image-keyboard-response,13
true,11,2,2,2,true,d,false,true,0.0-2.0-0.56-0.507-3.507,0,0,0,68,false,stim,false,0,550.1300003379583,0,0,0,68822,WMM1,1701356,false,false,1689,image-keyboard-response,14
true,11,2,2,0,false,q,false,false,0.0-2.0-0.56-0.508-3.508,0,0,0,68,false,stim,true,2,888.1250000558794,0,0,2,68822,WMM1,1703767,false,false,1692,image-keyboard-response,15
true,11,0,2,0,true,q,false,false,0.0-2.0-0.56-0.509-3.509,0,0,0,81,false,stim,false,2,842.5449999049306,0,0,2,68822,WMM1,1706135,false,true,1695,image-keyboard-response,16
true,11,2,2,1,false,z,true,false,0.0-2.0-0.56-0.510-3.510,0,0,0,68,false,stim,false,0,221.03000013157725,0,0,1,68822,WMM1,1707874,false,false,1698,image-keyboard-response,17
true,11,2,2,1,false,z,true,false,0.0-2.0-0.56-0.511-3.511,0,0,0,68,false,stim,false,0,304.9000003375113,0,0,1,68822,WMM1,1709714,false,false,1701,image-keyboard-response,18
true,11,1,2,1,true,z,false,true,0.0-2.0-0.56-0.512-3.512,0,0,0,90,false,stim,false,0,748.0049999430776,0,0,1,68822,WMM1,1711986,false,false,1704,image-keyboard-response,19
true,11,1,2,2,false,d,true,false,0.0-2.0-0.57-0.513-3.513,0,0,0,90,false,stim,false,0,777.7350000105798,0,0,0,68822,WMM1,1714290,false,false,1707,image-keyboard-response,20
true,11,2,2,0,false,q,false,false,0.0-2.0-0.57-0.514-3.514,0,0,0,68,false,stim,true,2,1615.7050002366304,0,0,2,68822,WMM1,1717442,false,false,1710,image-keyboard-response,21
true,11,0,2,0,true,q,false,true,0.0-2.0-0.57-0.515-3.515,0,0,0,81,false,stim,false,2,2702.414999715984,0,0,2,68822,WMM1,1721670,false,false,1713,image-keyboard-response,22
true,11,0,2,0,true,q,false,true,0.0-2.0-0.57-0.516-3.516,0,0,0,81,false,stim,false,2,762.9249999299645,0,0,2,68822,WMM1,1723966,false,false,1716,image-keyboard-response,23
true,11,2,2,1,false,z,true,false,0.0-2.0-0.57-0.517-3.517,0,0,0,68,false,stim,false,0,627.8299996629357,0,0,1,68822,WMM1,1726114,false,false,1719,image-keyboard-response,24
true,11,2,2,1,false,z,true,false,0.0-2.0-0.57-0.518-3.518,0,0,0,68,false,stim,false,0,615.1199997402728,0,0,1,68822,WMM1,1728246,false,false,1722,image-keyboard-response,25
true,11,0,2,2,false,d,false,false,0.0-2.0-0.57-0.519-3.519,0,0,0,81,false,stim,true,0,181.88499985262752,0,0,0,68822,WMM1,1729947,false,false,1725,image-keyboard-response,26
true,11,1,2,1,true,z,false,false,0.0-2.0-0.57-0.520-3.520,0,0,0,90,false,stim,false,0,260.0100003182888,0,0,1,68822,WMM1,1731738,false,true,1728,image-keyboard-response,27
true,11,0,2,2,false,d,false,false,0.0-2.0-0.57-0.521-3.521,0,0,0,81,false,stim,true,0,60.28000032529235,0,0,0,68822,WMM1,1733326,false,false,1731,image-keyboard-response,28
true,11,2,2,1,false,z,true,false,0.0-2.0-0.58-0.522-3.522,0,0,0,68,false,stim,false,0,505.5300001986325,0,0,1,68822,WMM1,1735365,false,false,1734,image-keyboard-response,29
true,11,2,2,1,false,z,true,false,0.0-2.0-0.58-0.523-3.523,0,0,0,68,false,stim,false,0,2922.950000036508,0,0,1,68822,WMM1,1739818,false,false,1737,image-keyboard-response,30
true,11,2,2,2,true,d,false,false,0.0-2.0-0.58-0.524-3.524,0,0,0,68,false,stim,false,0,1164.4299998879433,0,0,0,68822,WMM1,1742518,false,true,1740,image-keyboard-response,31
true,11,1,2,0,false,q,true,false,0.0-2.0-0.58-0.525-3.525,0,0,0,90,false,stim,false,2,949.0950000472367,0,0,2,68822,WMM1,1744992,false,false,1743,image-keyboard-response,32
true,11,2,2,0,false,q,false,false,0.0-2.0-0.58-0.526-3.526,0,0,0,68,false,stim,true,2,569.8600001633167,0,0,2,68822,WMM1,1747078,false,false,1746,image-keyboard-response,33
true,11,0,2,2,false,d,false,false,0.0-2.0-0.58-0.527-3.527,0,0,0,81,false,stim,true,0,411.2800001166761,0,0,0,68822,WMM1,1749013,false,false,1749,image-keyboard-response,34
true,11,1,2,0,false,q,true,false,0.0-2.0-0.58-0.528-3.528,0,0,0,90,false,stim,false,2,2007.1549997664988,0,0,2,68822,WMM1,1752551,false,false,1752,image-keyboard-response,35
true,11,0,2,1,false,z,false,false,0.0-2.0-0.58-0.529-3.529,0,0,0,81,false,stim,true,0,1078.9449997246265,0,0,1,68822,WMM1,1755169,false,false,1755,image-keyboard-response,36
true,11,2,2,2,true,d,false,true,0.0-2.0-0.58-0.530-3.530,0,0,0,68,false,stim,false,0,266.58499985933304,0,0,0,68822,WMM1,1756968,false,false,1758,image-keyboard-response,37
true,11,0,2,1,false,z,false,false,0.0-2.0-0.59-0.531-3.531,0,0,0,81,false,stim,true,0,1822.3500000312924,0,0,1,68822,WMM1,1760309,false,false,1761,image-keyboard-response,38
true,11,0,2,2,false,d,false,false,0.0-2.0-0.59-0.532-3.532,0,0,0,81,false,stim,true,0,963.6850003153086,0,0,0,68822,WMM1,1762810,false,false,1764,image-keyboard-response,39
true,11,0,2,2,false,d,false,false,0.0-2.0-0.59-0.533-3.533,0,0,0,81,false,stim,true,0,1570.0499997474253,0,0,0,68822,WMM1,1765901,false,false,1767,image-keyboard-response,40
true,11,2,2,1,false,z,true,false,0.0-2.0-0.59-0.534-3.534,0,0,0,68,false,stim,false,0,469.8749999515712,0,0,1,68822,WMM1,1767899,false,false,1770,image-keyboard-response,41
true,11,1,2,1,true,z,false,false,0.0-2.0-0.59-0.535-3.535,0,0,0,90,false,stim,false,0,1626.6600000672042,0,0,1,68822,WMM1,1771064,false,true,1773,image-keyboard-response,42
true,11,2,2,0,false,q,false,false,0.0-2.0-0.59-0.536-3.536,0,0,0,68,false,stim,true,2,378.1849998049438,0,0,2,68822,WMM1,1772970,false,false,1776,image-keyboard-response,43
true,11,2,2,0,false,q,false,false,0.0-2.0-0.59-0.537-3.537,0,0,0,68,false,stim,true,2,344.3099996075034,0,0,2,68822,WMM1,1774841,false,false,1779,image-keyboard-response,44
true,11,2,2,2,true,d,false,true,0.0-2.0-0.59-0.538-3.538,0,0,0,68,false,stim,false,0,1105.7250001467764,0,0,0,68822,WMM1,1777480,false,false,1782,image-keyboard-response,45
true,11,2,2,0,false,q,false,false,0.0-2.0-0.59-0.539-3.539,0,0,0,68,false,stim,true,2,1126.4849998988211,0,0,2,68822,WMM1,1780143,false,false,1785,image-keyboard-response,46
true,11,2,2,0,false,q,false,false,0.0-2.0-0.60-0.540-3.540,0,0,0,68,false,stim,true,2,545.0600003823638,0,0,2,68822,WMM1,1782210,false,false,1788,image-keyboard-response,47
false,11,-1,2,2,false,d,true,false,0.0-2.0-0.60-0.541-3.541,0,0,0,,false,stim,false,0,,0,0,0,68822,WMM1,1786744,false,false,1791,image-keyboard-response,48
false,11,-1,2,2,false,d,true,false,0.0-2.0-0.60-0.542-3.542,0,0,0,,false,stim,false,0,,0,0,0,68822,WMM1,1791279,false,false,1794,image-keyboard-response,49
false,11,-1,2,1,false,z,true,false,0.0-2.0-0.60-0.543-3.543,0,0,0,,false,stim,false,0,,0,0,1,68822,WMM1,1795825,false,false,1797,image-keyboard-response,50
true,11,1,2,1,true,z,false,true,0.0-2.0-0.60-0.544-3.544,0,0,0,90,false,stim,false,0,1004.6999999321997,0,0,1,68822,WMM1,1798363,false,false,1800,image-keyboard-response,51
true,11,1,2,1,true,z,false,false,0.0-2.0-0.60-0.545-3.545,0,0,0,90,false,stim,false,0,363.6000002734363,0,0,1,68822,WMM1,1800273,false,true,1803,image-keyboard-response,52
true,11,2,2,2,true,d,false,true,0.0-2.0-0.60-0.546-3.546,0,0,0,68,false,stim,false,0,1450.5050000734627,0,1,0,68822,WMM1,1803255,false,false,1806,image-keyboard-response,53
true,11,2,2,0,false,q,false,false,0.0-2.0-0.60-0.547-3.547,0,0,0,68,false,stim,true,2,719.6250003762543,0,0,2,68822,WMM1,1805496,false,false,1809,image-keyboard-response,54
true,11,1,2,0,false,q,true,false,0.0-2.0-0.60-0.548-3.548,0,0,0,90,false,stim,false,2,345.63500015065074,0,0,2,68822,WMM1,1807365,false,false,1812,image-keyboard-response,55
true,11,2,2,0,false,q,false,false,0.0-2.0-0.61-0.549-3.549,0,0,0,68,false,stim,true,2,589.6099996753037,0,0,2,68822,WMM1,1809494,false,false,1815,image-keyboard-response,56
true,11,2,2,2,true,d,false,true,0.0-2.0-0.61-0.550-3.550,0,0,0,68,false,stim,false,0,885.7150003314018,0,1,0,68822,WMM1,1811900,false,false,1818,image-keyboard-response,57
true,11,2,2,0,false,q,false,false,0.0-2.0-0.61-0.551-3.551,0,0,0,68,false,stim,true,2,649.704999756068,0,0,2,68822,WMM1,1814081,false,false,1821,image-keyboard-response,58
true,11,1,2,1,true,z,false,true,0.0-2.0-0.61-0.552-3.552,0,0,0,90,false,stim,false,0,308.10000002384186,0,0,1,68822,WMM1,1815915,false,false,1824,image-keyboard-response,59
true,11,1,2,0,false,q,true,false,0.0-2.0-0.61-0.553-3.553,0,0,0,90,false,stim,false,2,451.2200001627207,0,0,2,68822,WMM1,1817886,false,false,1827,image-keyboard-response,60
true,12,1,3,2,false,d,true,true,0.0-2.0-0.61-0.554-3.554,1,0,0,90,true,stim,false,2,970.790000166744,0,1,0,68822,WMM1,1820383,false,true,1830,image-keyboard-response,1
true,12,1,3,2,false,d,true,false,0.0-2.0-0.61-0.555-3.555,1,0,0,90,false,stim,false,2,519.0350003540516,0,1,0,68822,WMM1,1822428,false,false,1833,image-keyboard-response,2
true,12,2,3,0,false,q,true,false,0.0-2.0-0.61-0.556-3.556,1,0,0,68,false,stim,false,1,262.09000032395124,0,0,1,68822,WMM1,1824213,false,false,1836,image-keyboard-response,3
true,12,2,3,0,false,q,true,true,0.0-2.0-0.61-0.557-3.557,1,0,0,68,false,stim,false,1,673.1499996967614,0,0,1,68822,WMM1,1826419,false,true,1839,image-keyboard-response,4
true,12,2,3,2,true,d,false,true,0.0-2.0-0.62-0.558-3.558,1,0,0,68,false,stim,false,0,1054.2750000022352,0,0,2,68822,WMM1,1828997,false,false,1842,image-keyboard-response,5
true,12,2,3,0,false,q,true,true,0.0-2.0-0.62-0.559-3.559,1,0,0,68,false,stim,false,1,1067.2400002367795,0,0,1,68822,WMM1,1831594,false,true,1845,image-keyboard-response,6
true,12,2,3,0,false,q,true,false,0.0-2.0-0.62-0.560-3.560,1,0,0,68,false,stim,false,1,695.4999999143183,0,0,1,68822,WMM1,1833818,false,false,1848,image-keyboard-response,7
true,12,1,3,2,false,d,true,false,0.0-2.0-0.62-0.561-3.561,1,0,0,90,false,stim,false,2,144.66999983415008,0,1,0,68822,WMM1,1835485,false,false,1851,image-keyboard-response,8
true,12,0,3,0,true,q,false,false,0.0-2.0-0.62-0.562-3.562,1,0,0,81,false,stim,false,1,42.83499997109175,0,0,1,68822,WMM1,1837058,false,true,1854,image-keyboard-response,9
true,12,2,3,2,true,d,false,true,0.0-2.0-0.62-0.563-3.563,1,0,0,68,false,stim,false,2,916.1499999463558,0,1,0,68822,WMM1,1839509,false,false,1857,image-keyboard-response,10
true,12,2,3,2,true,d,false,true,0.0-2.0-0.62-0.564-3.564,1,0,0,68,false,stim,false,0,554.1799999773502,0,0,2,68822,WMM1,1841591,false,false,1860,image-keyboard-response,11
true,12,2,3,2,true,d,false,true,0.0-2.0-0.62-0.565-3.565,1,0,0,68,false,stim,false,2,469.45999981835485,0,1,0,68822,WMM1,1843580,false,false,1863,image-keyboard-response,12
true,12,2,3,2,true,d,false,true,0.0-2.0-0.62-0.566-3.566,1,0,0,68,false,stim,false,0,466.93999972194433,0,0,2,68822,WMM1,1845573,false,false,1866,image-keyboard-response,13
true,12,2,3,2,true,d,false,true,0.0-2.0-0.63-0.567-3.567,1,0,0,68,false,stim,false,2,400.0200000591576,0,1,0,68822,WMM1,1847505,false,false,1869,image-keyboard-response,14
true,12,1,3,2,false,d,true,false,0.0-2.0-0.63-0.568-3.568,1,0,0,90,false,stim,false,0,1199.3599999696016,0,0,2,68822,WMM1,1850229,false,false,1872,image-keyboard-response,15
true,12,0,3,0,true,q,false,true,0.0-2.0-0.63-0.569-3.569,1,0,0,81,false,stim,false,1,1049.885000102222,0,0,1,68822,WMM1,1852802,false,false,1875,image-keyboard-response,16
true,12,0,3,0,true,q,false,false,0.0-2.0-0.63-0.570-3.570,1,0,0,81,false,stim,false,1,1002.1899999119341,0,0,1,68822,WMM1,1855326,false,true,1878,image-keyboard-response,17
false,12,-1,3,2,false,d,true,false,0.0-2.0-0.63-0.571-3.571,1,0,0,,false,stim,false,2,,0,1,0,68822,WMM1,1859859,false,false,1881,image-keyboard-response,18
true,12,0,3,2,false,d,false,false,0.0-2.0-0.63-0.572-3.572,1,0,0,81,false,stim,true,0,815.5549997463822,0,0,2,68822,WMM1,1862196,false,false,1884,image-keyboard-response,19
true,12,2,3,2,true,d,false,true,0.0-2.0-0.63-0.573-3.573,1,0,0,68,false,stim,false,0,347.5250001065433,0,0,2,68822,WMM1,1864062,false,false,1887,image-keyboard-response,20
true,12,2,3,2,true,d,false,true,0.0-2.0-0.63-0.574-3.574,1,0,0,68,false,stim,false,2,538.8850001618266,0,1,0,68822,WMM1,1866130,false,false,1890,image-keyboard-response,21
true,12,2,3,0,false,q,true,false,0.0-2.0-0.63-0.575-3.575,1,0,0,68,false,stim,false,1,534.2999999411404,0,0,1,68822,WMM1,1868198,false,false,1893,image-keyboard-response,22
true,12,2,3,2,true,d,false,true,0.0-2.0-0.64-0.576-3.576,1,0,0,68,false,stim,false,0,1893.804999999702,0,0,2,68822,WMM1,1871621,false,false,1896,image-keyboard-response,23
true,12,2,3,2,true,d,false,true,0.0-2.0-0.64-0.577-3.577,1,0,0,68,false,stim,false,2,1064.3050000071526,0,1,0,68822,WMM1,1874216,false,false,1899,image-keyboard-response,24
true,12,2,3,2,true,d,false,true,0.0-2.0-0.64-0.578-3.578,1,0,0,68,false,stim,false,0,420.480000320822,0,0,2,68822,WMM1,1876170,false,false,1902,image-keyboard-response,25
true,12,2,3,2,true,d,false,true,0.0-2.0-0.64-0.579-3.579,1,0,0,68,false,stim,false,2,412.9800000227988,0,1,0,68822,WMM1,1878107,false,false,1905,image-keyboard-response,26
true,12,2,3,0,false,q,true,false,0.0-2.0-0.64-0.580-3.580,1,0,0,68,false,stim,false,1,504.0449998341501,0,0,1,68822,WMM1,1880147,false,false,1908,image-keyboard-response,27
true,12,1,3,2,false,d,true,false,0.0-2.0-0.64-0.581-3.581,1,0,0,90,false,stim,false,2,168.14500000327826,0,1,0,68822,WMM1,1881846,false,false,1911,image-keyboard-response,28
true,12,2,3,0,false,q,true,false,0.0-2.0-0.64-0.582-3.582,1,0,0,68,false,stim,false,1,594.0449996851385,0,0,1,68822,WMM1,1883973,false,false,1914,image-keyboard-response,29
true,12,2,3,2,true,d,false,true,0.0-2.0-0.64-0.583-3.583,1,0,0,68,false,stim,false,0,872.6849998347461,0,0,2,68822,WMM1,1886378,false,false,1917,image-keyboard-response,30
true,12,2,3,0,false,q,true,false,0.0-2.0-0.64-0.584-3.584,1,0,0,68,false,stim,false,1,1163.5300000198185,0,0,1,68822,WMM1,1889074,false,false,1920,image-keyboard-response,31
true,12,0,3,0,true,q,false,false,0.0-2.0-0.65-0.585-3.585,1,0,0,81,false,stim,false,1,233.66500018164515,0,0,1,68822,WMM1,1890838,false,true,1923,image-keyboard-response,32
