answered,blockNum,choice,condition,corResp,correct,correct_response,explo,fb,internal_node_id,isStable_1,isStable_2,isStable_3,key_press,newBlock,part,persev,persevResp,rt,sessNum,stableAS,stimulus,subject,task,time_elapsed,training,trap,trial_index,trial_type,trialsInBlock
true,1,0,0,2,false,d,true,false,0.0-2.0-0.0-0.0-3.0,0,0,0,81,true,stim,false,-1,1713,1,0,0,72805,WMM2,185908,false,false,79,image-keyboard-response,1
true,1,1,0,0,false,q,true,false,0.0-2.0-0.0-0.1-3.1,0,0,0,90,false,stim,false,-1,1631,1,0,2,72805,WMM2,189066,false,false,82,image-keyboard-response,2
true,1,0,0,0,true,q,false,true,0.0-2.0-0.0-0.2-3.2,0,0,0,81,false,stim,false,-1,856,1,0,2,72805,WMM2,191453,false,false,85,image-keyboard-response,3
true,1,2,0,2,true,d,false,true,0.0-2.0-0.0-0.3-3.3,0,0,0,68,false,stim,false,-1,1775,1,0,0,72805,WMM2,194771,false,false,88,image-keyboard-response,4
true,1,1,0,1,true,z,false,true,0.0-2.0-0.0-0.4-3.4,0,0,0,90,false,stim,false,-1,891,1,0,1,72805,WMM2,197187,false,false,91,image-keyboard-response,5
true,1,2,0,2,true,d,false,true,0.0-2.0-0.0-0.5-3.5,0,0,0,68,false,stim,false,-1,1861,1,0,0,72805,WMM2,200574,false,false,94,image-keyboard-response,6
true,1,0,0,0,true,q,false,true,0.0-2.0-0.0-0.6-3.6,0,0,0,81,false,stim,false,-1,1676,1,0,2,72805,WMM2,203792,false,false,97,image-keyboard-response,7
true,1,1,0,1,true,z,false,true,0.0-2.0-0.0-0.7-3.7,0,0,0,90,false,stim,false,-1,1060,1,0,1,72805,WMM2,206377,false,false,100,image-keyboard-response,8
true,1,1,0,1,true,z,false,false,0.0-2.0-0.0-0.8-3.8,0,0,0,90,false,stim,false,-1,524,1,0,1,72805,WMM2,208440,false,true,103,image-keyboard-response,9
true,1,1,0,1,true,z,false,true,0.0-2.0-0.1-0.9-3.9,0,0,0,90,false,stim,false,-1,541,1,0,1,72805,WMM2,210517,false,false,106,image-keyboard-response,10
true,1,2,0,2,true,d,false,true,0.0-2.0-0.1-0.10-3.10,0,0,0,68,false,stim,false,-1,1087,1,0,0,72805,WMM2,213142,false,false,109,image-keyboard-response,11
true,1,0,0,0,true,q,false,false,0.0-2.0-0.1-0.11-3.11,0,0,0,81,false,stim,false,-1,1873,1,0,2,72805,WMM2,216549,false,true,112,image-keyboard-response,12
true,1,0,0,0,true,q,false,true,0.0-2.0-0.1-0.12-3.12,0,0,0,81,false,stim,false,-1,551,1,0,2,72805,WMM2,218637,false,false,115,image-keyboard-response,13
true,1,2,0,2,true,d,false,true,0.0-2.0-0.1-0.13-3.13,0,0,0,68,false,stim,false,-1,1085,1,0,0,72805,WMM2,221252,false,false,118,image-keyboard-response,14
true,1,1,0,1,true,z,false,true,0.0-2.0-0.1-0.14-3.14,0,0,0,90,false,stim,false,-1,716,1,0,1,72805,WMM2,223479,false,false,121,image-keyboard-response,15
true,1,2,0,2,true,d,false,true,0.0-2.0-0.1-0.15-3.15,0,0,0,68,false,stim,false,-1,1217,1,0,0,72805,WMM2,226223,false,false,124,image-keyboard-response,16
true,1,1,0,1,true,z,false,true,0.0-2.0-0.1-0.16-3.16,0,0,0,90,false,stim,false,-1,626,1,0,1,72805,WMM2,228390,false,false,127,image-keyboard-response,17
true,1,0,0,0,true,q,false,false,0.0-2.0-0.1-0.17-3.17,0,0,0,81,false,stim,false,-1,731,1,0,2,72805,WMM2,230657,false,true,130,image-keyboard-response,18
true,1,0,0,0,true,q,false,true,0.0-2.0-0.2-0.18-3.18,0,0,0,81,false,stim,false,-1,518,1,0,2,72805,WMM2,232705,false,false,133,image-keyboard-response,19
true,1,1,0,1,true,z,false,true,0.0-2.0-0.2-0.19-3.19,0,0,0,90,false,stim,false,-1,790,1,0,1,72805,WMM2,235016,false,false,136,image-keyboard-response,20
true,1,2,0,2,true,d,false,true,0.0-2.0-0.2-0.20-3.20,0,0,0,68,false,stim,false,-1,612,1,0,0,72805,WMM2,237157,false,false,139,image-keyboard-response,21
true,1,2,0,2,true,d,false,true,0.0-2.0-0.2-0.21-3.21,0,0,0,68,false,stim,false,-1,889,1,0,0,72805,WMM2,239575,false,false,142,image-keyboard-response,22
true,1,0,0,0,true,q,false,true,0.0-2.0-0.2-0.22-3.22,0,0,0,81,false,stim,false,-1,899,1,1,2,72805,WMM2,242006,false,false,145,image-keyboard-response,23
true,1,2,0,2,true,d,false,false,0.0-2.0-0.2-0.23-3.23,0,0,0,68,false,stim,false,-1,795,1,0,0,72805,WMM2,244332,false,true,148,image-keyboard-response,24
true,1,0,0,0,true,q,false,false,0.0-2.0-0.2-0.24-3.24,0,0,0,81,false,stim,false,-1,1068,1,1,2,72805,WMM2,246922,false,true,151,image-keyboard-response,25
true,1,1,0,1,true,z,false,true,0.0-2.0-0.2-0.25-3.25,0,0,0,90,false,stim,false,-1,886,1,1,1,72805,WMM2,249343,false,false,154,image-keyboard-response,26
true,1,1,0,1,true,z,false,true,0.0-2.0-0.2-0.26-3.26,0,0,0,90,false,stim,false,-1,601,1,1,1,72805,WMM2,251476,false,false,157,image-keyboard-response,27
true,1,1,0,1,true,z,false,true,0.0-2.0-0.3-0.27-3.27,0,0,0,90,false,stim,false,-1,469,1,1,1,72805,WMM2,253484,false,false,160,image-keyboard-response,28
true,1,2,0,2,true,d,false,true,0.0-2.0-0.3-0.28-3.28,0,0,0,68,false,stim,false,-1,1301,1,0,0,72805,WMM2,256317,false,false,163,image-keyboard-response,29
true,1,0,0,0,true,q,false,false,0.0-2.0-0.3-0.29-3.29,0,0,0,81,false,stim,false,-1,862,1,1,2,72805,WMM2,258717,false,true,166,image-keyboard-response,30
true,2,2,4,2,true,d,false,true,0.0-2.0-0.3-0.30-3.30,0,1,1,68,true,stim,false,2,890,1,0,0,72805,WMM2,261145,false,false,169,image-keyboard-response,1
true,2,2,4,2,true,d,false,true,0.0-2.0-0.3-0.31-3.31,0,1,1,68,false,stim,false,2,521,1,0,0,72805,WMM2,263196,false,false,172,image-keyboard-response,2
true,2,1,4,1,true,z,false,true,0.0-2.0-0.3-0.32-3.32,0,1,1,90,false,stim,false,1,837,1,1,1,72805,WMM2,265573,false,false,175,image-keyboard-response,3
true,2,1,4,1,true,z,false,true,0.0-2.0-0.3-0.33-3.33,0,1,1,90,false,stim,false,1,485,1,1,1,72805,WMM2,267601,false,false,178,image-keyboard-response,4
true,2,1,4,0,false,q,true,false,0.0-2.0-0.3-0.34-3.34,0,1,1,90,false,stim,false,0,781,1,1,2,72805,WMM2,269917,false,false,181,image-keyboard-response,5
true,2,2,4,0,false,q,true,false,0.0-2.0-0.3-0.35-3.35,0,1,1,68,false,stim,false,0,718,1,1,2,72805,WMM2,272174,false,false,184,image-keyboard-response,6
true,2,1,4,1,true,z,false,false,0.0-2.0-0.4-0.36-3.36,0,1,1,90,false,stim,false,1,546,1,1,1,72805,WMM2,274262,false,true,187,image-keyboard-response,7
true,2,2,4,2,true,d,false,true,0.0-2.0-0.4-0.37-3.37,0,1,1,68,false,stim,false,2,997,1,0,0,72805,WMM2,276792,false,false,190,image-keyboard-response,8
true,2,0,4,0,true,q,false,true,0.0-2.0-0.4-0.38-3.38,0,1,1,81,false,stim,false,0,1062,1,1,2,72805,WMM2,279378,false,false,193,image-keyboard-response,9
true,2,1,4,1,true,z,false,true,0.0-2.0-0.4-0.39-3.39,0,1,1,90,false,stim,false,1,729,1,1,1,72805,WMM2,281634,false,false,196,image-keyboard-response,10
true,2,2,4,2,true,d,false,true,0.0-2.0-0.4-0.40-3.40,0,1,1,68,false,stim,false,2,915,1,0,0,72805,WMM2,284080,false,false,199,image-keyboard-response,11
true,2,0,4,0,true,q,false,true,0.0-2.0-0.4-0.41-3.41,0,1,1,81,false,stim,false,0,1096,1,1,2,72805,WMM2,286710,false,false,202,image-keyboard-response,12
true,2,1,4,1,true,z,false,true,0.0-2.0-0.4-0.42-3.42,0,1,1,90,false,stim,false,1,612,1,1,1,72805,WMM2,288848,false,false,205,image-keyboard-response,13
true,2,0,4,0,true,q,false,true,0.0-2.0-0.4-0.43-3.43,0,1,1,81,false,stim,false,0,694,1,1,2,72805,WMM2,291080,false,false,208,image-keyboard-response,14
true,2,2,4,2,true,d,false,true,0.0-2.0-0.4-0.44-3.44,0,1,1,68,false,stim,false,2,995,1,0,0,72805,WMM2,293600,false,false,211,image-keyboard-response,15
true,2,1,4,1,true,z,false,true,0.0-2.0-0.5-0.45-3.45,0,1,1,90,false,stim,false,1,686,1,1,1,72805,WMM2,295822,false,false,214,image-keyboard-response,16
true,2,2,4,2,true,d,false,true,0.0-2.0-0.5-0.46-3.46,0,1,1,68,false,stim,false,2,1038,1,0,0,72805,WMM2,298392,false,false,217,image-keyboard-response,17
true,2,1,4,1,true,z,false,true,0.0-2.0-0.5-0.47-3.47,0,1,1,90,false,stim,false,1,1642,1,1,1,72805,WMM2,301556,false,false,220,image-keyboard-response,18
true,2,2,4,2,true,d,false,true,0.0-2.0-0.5-0.48-3.48,0,1,1,68,false,stim,false,2,548,1,0,0,72805,WMM2,303643,false,false,223,image-keyboard-response,19
true,2,0,4,0,true,q,false,true,0.0-2.0-0.5-0.49-3.49,0,1,1,81,false,stim,false,0,674,1,1,2,72805,WMM2,305849,false,false,226,image-keyboard-response,20
true,2,1,4,1,true,z,false,true,0.0-2.0-0.5-0.50-3.50,0,1,1,90,false,stim,false,1,672,1,0,1,72805,WMM2,308056,false,false,229,image-keyboard-response,21
true,2,0,4,0,true,q,false,true,0.0-2.0-0.5-0.51-3.51,0,1,1,81,false,stim,false,0,1869,1,1,2,72805,WMM2,311454,false,false,232,image-keyboard-response,22
true,2,2,4,2,true,d,false,false,0.0-2.0-0.5-0.52-3.52,0,1,1,68,false,stim,false,2,1911,1,0,0,72805,WMM2,314897,false,true,235,image-keyboard-response,23
true,2,0,4,0,true,q,false,true,0.0-2.0-0.5-0.53-3.53,0,1,1,81,false,stim,false,0,1120,1,1,2,72805,WMM2,317556,false,false,238,image-keyboard-response,24
true,2,2,4,2,true,d,false,true,0.0-2.0-0.6-0.54-3.54,0,1,1,68,false,stim,false,2,1101,1,0,0,72805,WMM2,320196,false,false,241,image-keyboard-response,25
true,2,1,4,1,true,z,false,false,0.0-2.0-0.6-0.55-3.55,0,1,1,90,false,stim,false,1,693,1,0,1,72805,WMM2,322429,false,true,244,image-keyboard-response,26
true,2,2,4,2,true,d,false,false,0.0-2.0-0.6-0.56-3.56,0,1,1,68,false,stim,false,2,530,1,0,0,72805,WMM2,324486,false,true,247,image-keyboard-response,27
true,2,2,4,2,true,d,false,true,0.0-2.0-0.6-0.57-3.57,0,1,1,68,false,stim,false,2,594,1,0,0,72805,WMM2,326608,false,false,250,image-keyboard-response,28
true,2,1,4,1,true,z,false,true,0.0-2.0-0.6-0.58-3.58,0,1,1,90,false,stim,false,1,526,1,0,1,72805,WMM2,328661,false,false,253,image-keyboard-response,29
true,2,1,4,1,true,z,false,false,0.0-2.0-0.6-0.59-3.59,0,1,1,90,false,stim,false,1,473,1,0,1,72805,WMM2,330659,false,true,256,image-keyboard-response,30
true,3,0,1,0,true,q,false,true,0.0-2.0-0.6-0.60-3.60,0,0,1,81,true,stim,false,0,995,1,1,2,72805,WMM2,333180,false,false,259,image-keyboard-response,1
true,3,0,1,0,true,q,false,true,0.0-2.0-0.6-0.61-3.61,0,0,1,81,false,stim,false,0,583,1,1,2,72805,WMM2,335307,false,false,262,image-keyboard-response,2
true,3,0,1,0,true,q,false,true,0.0-2.0-0.6-0.62-3.62,0,0,1,81,false,stim,false,0,833,1,1,2,72805,WMM2,337678,false,false,265,image-keyboard-response,3
false,3,-1,1,1,false,z,true,false,0.0-2.0-0.7-0.63-3.63,0,0,1,,false,stim,false,2,,1,0,0,72805,WMM2,342224,false,false,268,image-keyboard-response,4
true,3,1,1,0,false,q,false,true,0.0-2.0-0.7-0.64-3.64,0,0,1,90,false,stim,true,1,524,1,0,1,72805,WMM2,344289,false,true,271,image-keyboard-response,5
true,3,0,1,0,true,q,false,true,0.0-2.0-0.7-0.65-3.65,0,0,1,81,false,stim,false,0,765,1,1,2,72805,WMM2,346580,false,false,274,image-keyboard-response,6
true,3,0,1,0,true,q,false,true,0.0-2.0-0.7-0.66-3.66,0,0,1,81,false,stim,false,0,518,1,1,2,72805,WMM2,348633,false,false,277,image-keyboard-response,7
true,3,0,1,0,true,q,false,true,0.0-2.0-0.7-0.67-3.67,0,0,1,81,false,stim,false,0,754,1,1,2,72805,WMM2,350930,false,false,280,image-keyboard-response,8
true,3,1,1,0,false,q,false,false,0.0-2.0-0.7-0.68-3.68,0,0,1,90,false,stim,true,1,1773,1,0,1,72805,WMM2,354227,false,false,283,image-keyboard-response,9
true,3,1,1,0,false,q,false,false,0.0-2.0-0.7-0.69-3.69,0,0,1,90,false,stim,true,1,422,1,0,1,72805,WMM2,356186,false,false,286,image-keyboard-response,10
true,3,2,1,1,false,z,false,false,0.0-2.0-0.7-0.70-3.70,0,0,1,68,false,stim,true,2,1081,1,0,0,72805,WMM2,358806,false,false,289,image-keyboard-response,11
true,3,2,1,1,false,z,false,false,0.0-2.0-0.7-0.71-3.71,0,0,1,68,false,stim,true,2,583,1,0,0,72805,WMM2,360928,false,false,292,image-keyboard-response,12
true,3,0,1,1,false,z,true,false,0.0-2.0-0.8-0.72-3.72,0,0,1,81,false,stim,false,2,645,1,0,0,72805,WMM2,363111,false,false,295,image-keyboard-response,13
true,3,2,1,0,false,q,true,false,0.0-2.0-0.8-0.73-3.73,0,0,1,68,false,stim,false,1,850,1,0,1,72805,WMM2,365496,false,false,298,image-keyboard-response,14
true,3,1,1,1,true,z,false,true,0.0-2.0-0.8-0.74-3.74,0,0,1,90,false,stim,false,2,689,1,0,0,72805,WMM2,367719,false,false,301,image-keyboard-response,15
true,3,0,1,0,true,q,false,true,0.0-2.0-0.8-0.75-3.75,0,0,1,81,false,stim,false,0,781,1,1,2,72805,WMM2,370026,false,false,304,image-keyboard-response,16
true,3,0,1,0,true,q,false,true,0.0-2.0-0.8-0.76-3.76,0,0,1,81,false,stim,false,1,642,1,0,1,72805,WMM2,372207,false,false,307,image-keyboard-response,17
true,3,0,1,0,true,q,false,true,0.0-2.0-0.8-0.77-3.77,0,0,1,81,false,stim,false,1,644,1,0,1,72805,WMM2,374389,false,false,310,image-keyboard-response,18
true,3,1,1,1,true,z,false,false,0.0-2.0-0.8-0.78-3.78,0,0,1,90,false,stim,false,2,686,1,0,0,72805,WMM2,376611,false,true,313,image-keyboard-response,19
true,3,0,1,0,true,q,false,false,0.0-2.0-0.8-0.79-3.79,0,0,1,81,false,stim,false,0,1156,1,1,2,72805,WMM2,379301,false,true,316,image-keyboard-response,20
true,3,2,1,0,false,q,true,false,0.0-2.0-0.8-0.80-3.80,0,0,1,68,false,stim,false,0,857,1,1,2,72805,WMM2,381683,false,false,319,image-keyboard-response,21
true,3,1,1,1,true,z,false,true,0.0-2.0-0.9-0.81-3.81,0,0,1,90,false,stim,false,2,1426,1,0,0,72805,WMM2,384652,false,false,322,image-keyboard-response,22
true,3,0,1,0,true,q,false,true,0.0-2.0-0.9-0.82-3.82,0,0,1,81,false,stim,false,0,1141,1,1,2,72805,WMM2,387327,false,false,325,image-keyboard-response,23
true,3,0,1,0,true,q,false,true,0.0-2.0-0.9-0.83-3.83,0,0,1,81,false,stim,false,1,479,1,1,1,72805,WMM2,389336,false,false,328,image-keyboard-response,24
true,3,0,1,0,true,q,false,true,0.0-2.0-0.9-0.84-3.84,0,0,1,81,false,stim,false,0,636,1,1,2,72805,WMM2,391512,false,false,331,image-keyboard-response,25
true,3,1,1,1,true,z,false,false,0.0-2.0-0.9-0.85-3.85,0,0,1,90,false,stim,false,2,877,1,0,0,72805,WMM2,393913,false,true,334,image-keyboard-response,26
true,3,0,1,1,false,z,true,false,0.0-2.0-0.9-0.86-3.86,0,0,1,81,false,stim,false,2,540,1,0,0,72805,WMM2,395996,false,false,337,image-keyboard-response,27
true,3,0,1,0,true,q,false,true,0.0-2.0-0.9-0.87-3.87,0,0,1,81,false,stim,false,0,706,1,1,2,72805,WMM2,398242,false,false,340,image-keyboard-response,28
true,3,0,1,0,true,q,false,true,0.0-2.0-0.9-0.88-3.88,0,0,1,81,false,stim,false,1,728,1,1,1,72805,WMM2,400504,false,false,343,image-keyboard-response,29
true,3,0,1,0,true,q,false,false,0.0-2.0-0.9-0.89-3.89,0,0,1,81,false,stim,false,1,575,1,1,1,72805,WMM2,402612,false,true,346,image-keyboard-response,30
true,4,1,4,1,true,z,false,true,0.0-2.0-0.10-0.90-3.90,0,1,1,90,true,stim,false,1,1241,1,0,0,72805,WMM2,405397,false,false,349,image-keyboard-response,1
true,4,0,4,0,true,q,false,true,0.0-2.0-0.10-0.91-3.91,0,1,1,81,false,stim,false,0,808,1,1,2,72805,WMM2,407733,false,false,352,image-keyboard-response,2
true,4,1,4,1,true,z,false,true,0.0-2.0-0.10-0.92-3.92,0,1,1,90,false,stim,false,1,730,1,0,0,72805,WMM2,409986,false,false,355,image-keyboard-response,3
true,4,0,4,0,true,q,false,true,0.0-2.0-0.10-0.93-3.93,0,1,1,81,false,stim,false,0,571,1,1,1,72805,WMM2,412078,false,false,358,image-keyboard-response,4
true,4,0,4,0,true,q,false,false,0.0-2.0-0.10-0.94-3.94,0,1,1,81,false,stim,false,0,481,1,1,1,72805,WMM2,414086,false,true,361,image-keyboard-response,5
true,4,0,4,0,true,q,false,false,0.0-2.0-0.10-0.95-3.95,0,1,1,81,false,stim,false,0,747,1,1,2,72805,WMM2,416373,false,true,364,image-keyboard-response,6
true,4,1,4,1,true,z,false,true,0.0-2.0-0.10-0.96-3.96,0,1,1,90,false,stim,false,1,649,1,0,0,72805,WMM2,418555,false,false,367,image-keyboard-response,7
true,4,1,4,0,false,q,true,false,0.0-2.0-0.10-0.97-3.97,0,1,1,90,false,stim,false,0,802,1,1,2,72805,WMM2,420887,false,false,370,image-keyboard-response,8
true,4,0,4,0,true,q,false,true,0.0-2.0-0.10-0.98-3.98,0,1,1,81,false,stim,false,0,1021,1,1,1,72805,WMM2,423448,false,false,373,image-keyboard-response,9
true,4,0,4,0,true,q,false,true,0.0-2.0-0.11-0.99-3.99,0,1,1,81,false,stim,false,0,1730,1,1,2,72805,WMM2,426715,false,false,376,image-keyboard-response,10
true,4,0,4,0,true,q,false,true,0.0-2.0-0.11-0.100-3.100,0,1,1,81,false,stim,false,0,1610,1,1,1,72805,WMM2,429855,false,false,379,image-keyboard-response,11
true,4,0,4,0,true,q,false,false,0.0-2.0-0.11-0.101-3.101,0,1,1,81,false,stim,false,0,492,1,1,1,72805,WMM2,431877,false,true,382,image-keyboard-response,12
true,4,1,4,1,true,z,false,true,0.0-2.0-0.11-0.102-3.102,0,1,1,90,false,stim,false,1,619,1,0,0,72805,WMM2,434025,false,false,385,image-keyboard-response,13
true,4,0,4,0,true,q,false,true,0.0-2.0-0.11-0.103-3.103,0,1,1,81,false,stim,false,0,727,1,1,1,72805,WMM2,436292,false,false,388,image-keyboard-response,14
true,4,0,4,0,true,q,false,true,0.0-2.0-0.11-0.104-3.104,0,1,1,81,false,stim,false,0,1146,1,1,2,72805,WMM2,438972,false,false,391,image-keyboard-response,15
true,4,1,4,1,true,z,false,true,0.0-2.0-0.11-0.105-3.105,0,1,1,90,false,stim,false,1,1655,1,0,0,72805,WMM2,442161,false,false,394,image-keyboard-response,16
true,4,0,4,0,true,q,false,true,0.0-2.0-0.11-0.106-3.106,0,1,1,81,false,stim,false,0,1126,1,1,2,72805,WMM2,444822,false,false,397,image-keyboard-response,17
true,4,1,4,1,true,z,false,true,0.0-2.0-0.11-0.107-3.107,0,1,1,90,false,stim,false,1,1590,1,0,0,72805,WMM2,447946,false,false,400,image-keyboard-response,18
true,4,1,4,1,true,z,false,true,0.0-2.0-0.12-0.108-3.108,0,1,1,90,false,stim,false,1,581,1,0,0,72805,WMM2,450057,false,false,403,image-keyboard-response,19
true,4,0,4,0,true,q,false,true,0.0-2.0-0.12-0.109-3.109,0,1,1,81,false,stim,false,0,883,1,1,1,72805,WMM2,452479,false,false,406,image-keyboard-response,20
true,4,1,4,1,true,z,false,false,0.0-2.0-0.12-0.110-3.110,0,1,1,90,false,stim,false,1,1114,1,1,0,72805,WMM2,455130,false,true,409,image-keyboard-response,21
true,4,1,4,1,true,z,false,true,0.0-2.0-0.12-0.111-3.111,0,1,1,90,false,stim,false,1,427,1,1,0,72805,WMM2,457092,false,false,412,image-keyboard-response,22
true,4,0,4,0,true,q,false,false,0.0-2.0-0.12-0.112-3.112,0,1,1,81,false,stim,false,0,943,1,1,1,72805,WMM2,459569,false,true,415,image-keyboard-response,23
true,4,0,4,0,true,q,false,true,0.0-2.0-0.12-0.113-3.113,0,1,1,81,false,stim,false,0,975,1,0,2,72805,WMM2,462080,false,false,418,image-keyboard-response,24
true,4,0,4,0,true,q,false,true,0.0-2.0-0.12-0.114-3.114,0,1,1,81,false,stim,false,0,553,1,0,2,72805,WMM2,464157,false,false,421,image-keyboard-response,25
true,4,0,4,0,true,q,false,true,0.0-2.0-0.12-0.115-3.115,0,1,1,81,false,stim,false,0,484,1,0,2,72805,WMM2,466170,false,false,424,image-keyboard-response,26
true,4,0,4,0,true,q,false,true,0.0-2.0-0.12-0.116-3.116,0,1,1,81,false,stim,false,0,976,1,1,1,72805,WMM2,468682,false,false,427,image-keyboard-response,27
true,4,1,4,1,true,z,false,true,0.0-2.0-0.13-0.117-3.117,0,1,1,90,false,stim,false,1,807,1,1,0,72805,WMM2,471013,false,false,430,image-keyboard-response,28
true,4,0,4,0,true,q,false,true,0.0-2.0-0.13-0.118-3.118,0,1,1,81,false,stim,false,0,2136,1,0,2,72805,WMM2,474676,false,false,433,image-keyboard-response,29
true,4,0,4,0,true,q,false,true,0.0-2.0-0.13-0.119-3.119,0,1,1,81,false,stim,false,0,1169,1,1,1,72805,WMM2,477386,false,false,436,image-keyboard-response,30
true,5,1,3,1,true,z,false,true,0.0-2.0-0.13-0.120-3.120,1,1,0,90,true,stim,false,1,1528,1,1,0,72805,WMM2,480444,false,false,439,image-keyboard-response,1
true,5,0,3,2,false,d,false,false,0.0-2.0-0.13-0.121-3.121,1,1,0,81,false,stim,true,0,900,1,0,2,72805,WMM2,482876,false,false,442,image-keyboard-response,2
true,5,0,3,2,false,d,false,false,0.0-2.0-0.13-0.122-3.122,1,1,0,81,false,stim,true,0,423,1,0,2,72805,WMM2,484839,false,false,445,image-keyboard-response,3
true,5,1,3,1,true,z,false,true,0.0-2.0-0.13-0.123-3.123,1,1,0,90,false,stim,false,1,715,1,1,0,72805,WMM2,487091,false,false,448,image-keyboard-response,4
true,5,0,3,0,true,q,false,true,0.0-2.0-0.13-0.124-3.124,1,1,0,81,false,stim,false,0,782,1,1,1,72805,WMM2,489398,false,false,451,image-keyboard-response,5
true,5,0,3,0,true,q,false,true,0.0-2.0-0.13-0.125-3.125,1,1,0,81,false,stim,false,0,594,1,1,1,72805,WMM2,491530,false,false,454,image-keyboard-response,6
true,5,1,3,1,true,z,false,true,0.0-2.0-0.14-0.126-3.126,1,1,0,90,false,stim,false,1,916,1,1,0,72805,WMM2,493971,false,false,457,image-keyboard-response,7
true,5,1,3,1,true,z,false,true,0.0-2.0-0.14-0.127-3.127,1,1,0,90,false,stim,false,1,444,1,1,0,72805,WMM2,495930,false,false,460,image-keyboard-response,8
true,5,1,3,1,true,z,false,true,0.0-2.0-0.14-0.128-3.128,1,1,0,90,false,stim,false,1,487,1,1,0,72805,WMM2,497953,false,false,463,image-keyboard-response,9
true,5,2,3,2,true,d,false,true,0.0-2.0-0.14-0.129-3.129,1,1,0,68,false,stim,false,0,1132,1,0,2,72805,WMM2,500619,false,false,466,image-keyboard-response,10
true,5,0,3,0,true,q,false,true,0.0-2.0-0.14-0.130-3.130,1,1,0,81,false,stim,false,0,1072,1,1,1,72805,WMM2,503218,false,false,469,image-keyboard-response,11
true,5,2,3,2,true,d,false,true,0.0-2.0-0.14-0.131-3.131,1,1,0,68,false,stim,false,0,1064,1,0,2,72805,WMM2,505810,false,false,472,image-keyboard-response,12
true,5,2,3,2,true,d,false,true,0.0-2.0-0.14-0.132-3.132,1,1,0,68,false,stim,false,0,412,1,0,2,72805,WMM2,507757,false,false,475,image-keyboard-response,13
true,5,0,3,0,true,q,false,false,0.0-2.0-0.14-0.133-3.133,1,1,0,81,false,stim,false,0,994,1,1,1,72805,WMM2,510279,false,true,478,image-keyboard-response,14
true,5,0,3,0,true,q,false,true,0.0-2.0-0.14-0.134-3.134,1,1,0,81,false,stim,false,0,416,1,1,1,72805,WMM2,512221,false,false,481,image-keyboard-response,15
true,5,1,3,1,true,z,false,true,0.0-2.0-0.15-0.135-3.135,1,1,0,90,false,stim,false,1,779,1,1,0,72805,WMM2,514525,false,false,484,image-keyboard-response,16
true,5,0,3,0,true,q,false,false,0.0-2.0-0.15-0.136-3.136,1,1,0,81,false,stim,false,0,681,1,1,1,72805,WMM2,516746,false,true,487,image-keyboard-response,17
true,5,0,3,0,true,q,false,true,0.0-2.0-0.15-0.137-3.137,1,1,0,81,false,stim,false,0,598,1,1,1,72805,WMM2,518883,false,false,490,image-keyboard-response,18
true,5,2,3,2,true,d,false,false,0.0-2.0-0.15-0.138-3.138,1,1,0,68,false,stim,false,0,973,1,0,2,72805,WMM2,521380,false,true,493,image-keyboard-response,19
true,5,1,3,1,true,z,false,true,0.0-2.0-0.15-0.139-3.139,1,1,0,90,false,stim,false,1,963,1,1,0,72805,WMM2,523871,false,false,496,image-keyboard-response,20
true,5,2,3,2,true,d,false,true,0.0-2.0-0.15-0.140-3.140,1,1,0,68,false,stim,false,0,956,1,1,2,72805,WMM2,526361,false,false,499,image-keyboard-response,21
true,5,1,3,1,true,z,false,true,0.0-2.0-0.15-0.141-3.141,1,1,0,90,false,stim,false,1,1116,1,1,0,72805,WMM2,529002,false,false,502,image-keyboard-response,22
true,5,0,3,0,true,q,false,true,0.0-2.0-0.15-0.142-3.142,1,1,0,81,false,stim,false,0,1390,1,0,1,72805,WMM2,531927,false,false,505,image-keyboard-response,23
true,5,1,3,2,false,d,true,false,0.0-2.0-0.15-0.143-3.143,1,1,0,90,false,stim,false,0,2198,1,1,2,72805,WMM2,535653,false,false,508,image-keyboard-response,24
true,5,1,3,1,true,z,false,true,0.0-2.0-0.16-0.144-3.144,1,1,0,90,false,stim,false,1,981,1,1,0,72805,WMM2,538155,false,false,511,image-keyboard-response,25
true,5,0,3,0,true,q,false,true,0.0-2.0-0.16-0.145-3.145,1,1,0,81,false,stim,false,0,791,1,0,1,72805,WMM2,540486,false,false,514,image-keyboard-response,26
true,5,2,3,2,true,d,false,true,0.0-2.0-0.16-0.146-3.146,1,1,0,68,false,stim,false,0,791,1,1,2,72805,WMM2,542808,false,false,517,image-keyboard-response,27
true,5,2,3,2,true,d,false,true,0.0-2.0-0.16-0.147-3.147,1,1,0,68,false,stim,false,0,400,1,1,2,72805,WMM2,544736,false,false,520,image-keyboard-response,28
true,5,2,3,2,true,d,false,true,0.0-2.0-0.16-0.148-3.148,1,1,0,68,false,stim,false,0,512,1,1,2,72805,WMM2,546789,false,false,523,image-keyboard-response,29
true,5,0,3,0,true,q,false,true,0.0-2.0-0.16-0.149-3.149,1,1,0,81,false,stim,false,0,1273,1,0,1,72805,WMM2,549599,false,false,526,image-keyboard-response,30
true,6,1,4,1,true,z,false,true,0.0-2.0-0.16-0.150-3.150,1,0,1,90,true,stim,false,1,1124,1,1,0,72805,WMM2,552250,false,false,529,image-keyboard-response,1
true,6,0,4,0,true,q,false,true,0.0-2.0-0.16-0.151-3.151,1,0,1,81,false,stim,false,0,567,1,0,1,72805,WMM2,554343,false,false,532,image-keyboard-response,2
true,6,1,4,1,true,z,false,true,0.0-2.0-0.16-0.152-3.152,1,0,1,90,false,stim,false,1,1326,1,1,0,72805,WMM2,557202,false,false,535,image-keyboard-response,3
true,6,0,4,0,true,q,false,true,0.0-2.0-0.17-0.153-3.153,1,0,1,81,false,stim,false,0,624,1,0,1,72805,WMM2,559360,false,false,538,image-keyboard-response,4
true,6,2,4,2,true,d,false,true,0.0-2.0-0.17-0.154-3.154,1,0,1,68,false,stim,false,2,1248,1,1,2,72805,WMM2,562145,false,false,541,image-keyboard-response,5
true,6,2,4,2,true,d,false,true,0.0-2.0-0.17-0.155-3.155,1,0,1,68,false,stim,false,2,507,1,1,2,72805,WMM2,564183,false,false,544,image-keyboard-response,6
true,6,1,4,1,true,z,false,false,0.0-2.0-0.17-0.156-3.156,1,0,1,90,false,stim,false,1,1207,1,1,0,72805,WMM2,566923,false,true,547,image-keyboard-response,7
true,6,0,4,0,true,q,false,true,0.0-2.0-0.17-0.157-3.157,1,0,1,81,false,stim,false,0,745,1,0,1,72805,WMM2,569201,false,false,550,image-keyboard-response,8
true,6,0,4,0,true,q,false,true,0.0-2.0-0.17-0.158-3.158,1,0,1,81,false,stim,false,0,481,1,0,1,72805,WMM2,571208,false,false,553,image-keyboard-response,9
true,6,1,4,1,true,z,false,false,0.0-2.0-0.17-0.159-3.159,1,0,1,90,false,stim,false,1,854,1,1,0,72805,WMM2,573600,false,true,556,image-keyboard-response,10
true,6,2,4,2,true,d,false,true,0.0-2.0-0.17-0.160-3.160,1,0,1,68,false,stim,false,2,1202,1,1,2,72805,WMM2,576326,false,false,559,image-keyboard-response,11
true,6,2,4,1,false,z,true,false,0.0-2.0-0.17-0.161-3.161,1,0,1,68,false,stim,false,1,1399,1,1,0,72805,WMM2,579255,false,false,562,image-keyboard-response,12
true,6,0,4,1,false,z,true,true,0.0-2.0-0.18-0.162-3.162,1,0,1,81,false,stim,false,1,791,1,1,0,72805,WMM2,581576,false,true,565,image-keyboard-response,13
true,6,2,4,2,true,d,false,false,0.0-2.0-0.18-0.163-3.163,1,0,1,68,false,stim,false,2,1001,1,1,2,72805,WMM2,584108,false,true,568,image-keyboard-response,14
true,6,0,4,1,false,z,true,false,0.0-2.0-0.18-0.164-3.164,1,0,1,81,false,stim,false,1,803,1,1,0,72805,WMM2,586449,false,false,571,image-keyboard-response,15
true,6,0,4,1,false,z,true,false,0.0-2.0-0.18-0.165-3.165,1,0,1,81,false,stim,false,1,430,1,1,0,72805,WMM2,588417,false,false,574,image-keyboard-response,16
true,6,0,4,0,true,q,false,true,0.0-2.0-0.18-0.166-3.166,1,0,1,81,false,stim,false,0,1048,1,0,1,72805,WMM2,590993,false,false,577,image-keyboard-response,17
true,6,2,4,2,true,d,false,true,0.0-2.0-0.18-0.167-3.167,1,0,1,68,false,stim,false,2,993,1,1,2,72805,WMM2,593519,false,false,580,image-keyboard-response,18
true,6,0,4,0,true,q,false,true,0.0-2.0-0.18-0.168-3.168,1,0,1,81,false,stim,false,0,800,1,0,1,72805,WMM2,595846,false,false,583,image-keyboard-response,19
true,6,2,4,2,true,d,false,true,0.0-2.0-0.18-0.169-3.169,1,0,1,68,false,stim,false,2,1060,1,1,2,72805,WMM2,598447,false,false,586,image-keyboard-response,20
true,6,0,4,0,true,q,false,true,0.0-2.0-0.18-0.170-3.170,1,0,1,81,false,stim,false,0,1107,1,0,1,72805,WMM2,601093,false,false,589,image-keyboard-response,21
true,6,0,4,0,true,q,false,true,0.0-2.0-0.19-0.171-3.171,1,0,1,81,false,stim,false,0,569,1,0,1,72805,WMM2,603196,false,false,592,image-keyboard-response,22
true,6,0,4,0,true,q,false,true,0.0-2.0-0.19-0.172-3.172,1,0,1,81,false,stim,false,0,459,1,0,1,72805,WMM2,605184,false,false,595,image-keyboard-response,23
true,6,0,4,0,true,q,false,true,0.0-2.0-0.19-0.173-3.173,1,0,1,81,false,stim,false,0,381,1,0,1,72805,WMM2,607087,false,false,598,image-keyboard-response,24
true,6,2,4,2,true,d,false,true,0.0-2.0-0.19-0.174-3.174,1,0,1,68,false,stim,false,2,971,1,1,2,72805,WMM2,609602,false,false,601,image-keyboard-response,25
true,6,1,4,1,true,z,false,true,0.0-2.0-0.19-0.175-3.175,1,0,1,90,false,stim,false,1,952,1,1,0,72805,WMM2,612098,false,false,604,image-keyboard-response,26
true,6,2,4,2,true,d,false,true,0.0-2.0-0.19-0.176-3.176,1,0,1,68,false,stim,false,2,952,1,1,2,72805,WMM2,614575,false,false,607,image-keyboard-response,27
true,6,1,4,1,true,z,false,true,0.0-2.0-0.19-0.177-3.177,1,0,1,90,false,stim,false,1,1065,1,1,0,72805,WMM2,617182,false,false,610,image-keyboard-response,28
true,6,2,4,2,true,d,false,true,0.0-2.0-0.19-0.178-3.178,1,0,1,68,false,stim,false,2,991,1,1,2,72805,WMM2,619716,false,false,613,image-keyboard-response,29
true,6,1,4,1,true,z,false,true,0.0-2.0-0.19-0.179-3.179,1,0,1,90,false,stim,false,1,971,1,1,0,72805,WMM2,622218,false,false,616,image-keyboard-response,30
true,6,2,4,2,true,d,false,true,0.0-2.0-0.20-0.180-3.180,1,0,1,68,false,stim,false,2,908,1,1,2,72805,WMM2,624654,false,false,619,image-keyboard-response,31
true,6,0,4,0,true,q,false,true,0.0-2.0-0.20-0.181-3.181,1,0,1,81,false,stim,false,0,964,1,0,1,72805,WMM2,627151,false,false,622,image-keyboard-response,32
true,6,0,4,0,true,q,false,true,0.0-2.0-0.20-0.182-3.182,1,0,1,81,false,stim,false,0,487,1,0,1,72805,WMM2,629174,false,false,625,image-keyboard-response,33
true,6,1,4,1,true,z,false,true,0.0-2.0-0.20-0.183-3.183,1,0,1,90,false,stim,false,1,877,1,1,0,72805,WMM2,631585,false,false,628,image-keyboard-response,34
true,6,2,4,2,true,d,false,true,0.0-2.0-0.20-0.184-3.184,1,0,1,68,false,stim,false,2,1328,1,1,2,72805,WMM2,634454,false,false,631,image-keyboard-response,35
true,6,0,4,0,true,q,false,false,0.0-2.0-0.20-0.185-3.185,1,0,1,81,false,stim,false,0,1009,1,0,1,72805,WMM2,637005,false,true,634,image-keyboard-response,36
true,6,1,4,1,true,z,false,true,0.0-2.0-0.20-0.186-3.186,1,0,1,90,false,stim,false,1,726,1,1,0,72805,WMM2,639262,false,false,637,image-keyboard-response,37
true,6,2,4,2,true,d,false,true,0.0-2.0-0.20-0.187-3.187,1,0,1,68,false,stim,false,2,862,1,1,2,72805,WMM2,641658,false,false,640,image-keyboard-response,38
true,7,1,2,1,true,z,false,true,0.0-2.0-0.20-0.188-3.188,1,0,1,90,true,stim,false,1,885,1,1,0,72805,WMM2,644066,false,false,643,image-keyboard-response,1
true,7,1,2,1,true,z,false,true,0.0-2.0-0.21-0.189-3.189,1,0,1,90,false,stim,false,1,481,1,1,0,72805,WMM2,646078,false,false,646,image-keyboard-response,2
true,7,0,2,2,false,d,false,false,0.0-2.0-0.21-0.190-3.190,1,0,1,81,false,stim,true,0,1152,1,0,1,72805,WMM2,648768,false,false,649,image-keyboard-response,3
true,7,1,2,1,true,z,false,true,0.0-2.0-0.21-0.191-3.191,1,0,1,90,false,stim,false,1,690,1,1,0,72805,WMM2,650980,false,false,652,image-keyboard-response,4
true,7,1,2,1,true,z,false,true,0.0-2.0-0.21-0.192-3.192,1,0,1,90,false,stim,false,1,568,1,1,0,72805,WMM2,653084,false,false,655,image-keyboard-response,5
true,7,2,2,2,true,d,false,true,0.0-2.0-0.21-0.193-3.193,1,0,1,68,false,stim,false,2,908,1,1,2,72805,WMM2,655524,false,false,658,image-keyboard-response,6
true,7,2,2,2,true,d,false,true,0.0-2.0-0.21-0.194-3.194,1,0,1,68,false,stim,false,2,406,1,1,2,72805,WMM2,657462,false,false,661,image-keyboard-response,7
true,7,2,2,2,true,d,false,true,0.0-2.0-0.21-0.195-3.195,1,0,1,68,false,stim,false,2,494,1,1,2,72805,WMM2,659490,false,false,664,image-keyboard-response,8
true,7,2,2,2,true,d,false,true,0.0-2.0-0.21-0.196-3.196,1,0,1,68,false,stim,false,0,406,1,0,1,72805,WMM2,661423,false,false,667,image-keyboard-response,9
true,7,2,2,2,true,d,false,true,0.0-2.0-0.21-0.197-3.197,1,0,1,68,false,stim,false,0,424,1,0,1,72805,WMM2,663371,false,false,670,image-keyboard-response,10
true,7,2,2,2,true,d,false,true,0.0-2.0-0.22-0.198-3.198,1,0,1,68,false,stim,false,2,618,1,1,2,72805,WMM2,665523,false,false,673,image-keyboard-response,11
true,7,1,2,1,true,z,false,true,0.0-2.0-0.22-0.199-3.199,1,0,1,90,false,stim,false,1,1276,1,1,0,72805,WMM2,668343,false,false,676,image-keyboard-response,12
true,7,2,2,2,true,d,false,true,0.0-2.0-0.22-0.200-3.200,1,0,1,68,false,stim,false,0,760,1,0,1,72805,WMM2,670646,false,false,679,image-keyboard-response,13
true,7,2,2,2,true,d,false,true,0.0-2.0-0.22-0.201-3.201,1,0,1,68,false,stim,false,0,387,1,0,1,72805,WMM2,672574,false,false,682,image-keyboard-response,14
true,7,2,2,2,true,d,false,true,0.0-2.0-0.22-0.202-3.202,1,0,1,68,false,stim,false,2,1342,1,1,2,72805,WMM2,675448,false,false,685,image-keyboard-response,15
true,7,1,2,1,true,z,false,false,0.0-2.0-0.22-0.203-3.203,1,0,1,90,false,stim,false,1,1188,1,1,0,72805,WMM2,678174,false,true,688,image-keyboard-response,16
true,7,2,2,2,true,d,false,true,0.0-2.0-0.22-0.204-3.204,1,0,1,68,false,stim,false,2,435,1,1,2,72805,WMM2,680142,false,false,691,image-keyboard-response,17
true,7,2,2,2,true,d,false,true,0.0-2.0-0.22-0.205-3.205,1,0,1,68,false,stim,false,0,668,1,0,1,72805,WMM2,682334,false,false,694,image-keyboard-response,18
true,7,0,2,1,false,z,true,false,0.0-2.0-0.22-0.206-3.206,1,0,1,81,false,stim,false,1,844,1,1,0,72805,WMM2,684710,false,false,697,image-keyboard-response,19
true,7,2,2,1,false,z,true,false,0.0-2.0-0.23-0.207-3.207,1,0,1,68,false,stim,false,1,438,1,1,0,72805,WMM2,686684,false,false,700,image-keyboard-response,20
true,7,2,2,2,true,d,false,true,0.0-2.0-0.23-0.208-3.208,1,0,1,68,false,stim,false,2,641,1,1,2,72805,WMM2,688866,false,false,703,image-keyboard-response,21
true,7,2,2,2,true,d,false,true,0.0-2.0-0.23-0.209-3.209,1,0,1,68,false,stim,false,0,508,1,0,1,72805,WMM2,690905,false,false,706,image-keyboard-response,22
true,7,2,2,2,true,d,false,true,0.0-2.0-0.23-0.210-3.210,1,0,1,68,false,stim,false,0,370,1,0,1,72805,WMM2,692807,false,false,709,image-keyboard-response,23
true,7,1,2,1,true,z,false,true,0.0-2.0-0.23-0.211-3.211,1,0,1,90,false,stim,false,1,789,1,1,0,72805,WMM2,695134,false,false,712,image-keyboard-response,24
true,7,2,2,2,true,d,false,true,0.0-2.0-0.23-0.212-3.212,1,0,1,68,false,stim,false,2,581,1,1,2,72805,WMM2,697257,false,false,715,image-keyboard-response,25
true,7,1,2,1,true,z,false,true,0.0-2.0-0.23-0.213-3.213,1,0,1,90,false,stim,false,1,524,1,1,0,72805,WMM2,699320,false,false,718,image-keyboard-response,26
true,7,2,2,2,true,d,false,true,0.0-2.0-0.23-0.214-3.214,1,0,1,68,false,stim,false,0,492,1,1,1,72805,WMM2,701347,false,false,721,image-keyboard-response,27
true,7,2,2,2,true,d,false,true,0.0-2.0-0.23-0.215-3.215,1,0,1,68,false,stim,false,2,1023,1,0,2,72805,WMM2,703900,false,false,724,image-keyboard-response,28
true,7,2,2,2,true,d,false,true,0.0-2.0-0.24-0.216-3.216,1,0,1,68,false,stim,false,2,529,1,0,2,72805,WMM2,705965,false,false,727,image-keyboard-response,29
true,7,1,2,1,true,z,false,true,0.0-2.0-0.24-0.217-3.217,1,0,1,90,false,stim,false,1,653,1,1,0,72805,WMM2,708159,false,false,730,image-keyboard-response,30
true,7,1,2,1,true,z,false,true,0.0-2.0-0.24-0.218-3.218,1,0,1,90,false,stim,false,1,1538,1,1,0,72805,WMM2,711212,false,false,733,image-keyboard-response,31
true,7,1,2,1,true,z,false,true,0.0-2.0-0.24-0.219-3.219,1,0,1,90,false,stim,false,1,1695,1,1,0,72805,WMM2,714442,false,false,736,image-keyboard-response,32
true,7,2,2,2,true,d,false,true,0.0-2.0-0.24-0.220-3.220,1,0,1,68,false,stim,false,0,1052,1,1,1,72805,WMM2,717017,false,false,739,image-keyboard-response,33
true,7,2,2,2,true,d,false,true,0.0-2.0-0.24-0.221-3.221,1,0,1,68,false,stim,false,2,821,1,0,2,72805,WMM2,719364,false,false,742,image-keyboard-response,34
true,7,2,2,2,true,d,false,true,0.0-2.0-0.24-0.222-3.222,1,0,1,68,false,stim,false,0,1099,1,1,1,72805,WMM2,721996,false,false,745,image-keyboard-response,35
true,7,2,2,2,true,d,false,true,0.0-2.0-0.24-0.223-3.223,1,0,1,68,false,stim,false,2,586,1,0,2,72805,WMM2,724123,false,false,748,image-keyboard-response,36
true,8,2,2,2,true,d,false,true,0.0-2.0-0.24-0.224-3.224,1,1,0,68,true,stim,false,2,610,1,1,1,72805,WMM2,726256,false,false,751,image-keyboard-response,1
true,8,1,2,1,true,z,false,true,0.0-2.0-0.25-0.225-3.225,1,1,0,90,false,stim,false,1,576,1,1,0,72805,WMM2,728363,false,false,754,image-keyboard-response,2
true,8,2,2,0,false,q,false,false,0.0-2.0-0.25-0.226-3.226,1,1,0,68,false,stim,true,2,445,1,0,2,72805,WMM2,730351,false,false,757,image-keyboard-response,3
true,8,1,2,1,true,z,false,true,0.0-2.0-0.25-0.227-3.227,1,1,0,90,false,stim,false,1,552,1,1,0,72805,WMM2,732440,false,false,760,image-keyboard-response,4
true,8,2,2,2,true,d,false,false,0.0-2.0-0.25-0.228-3.228,1,1,0,68,false,stim,false,2,849,1,1,1,72805,WMM2,734816,false,true,763,image-keyboard-response,5
true,8,1,2,1,true,z,false,true,0.0-2.0-0.25-0.229-3.229,1,1,0,90,false,stim,false,1,434,1,1,0,72805,WMM2,736781,false,false,766,image-keyboard-response,6
true,8,2,2,0,false,q,false,false,0.0-2.0-0.25-0.230-3.230,1,1,0,68,false,stim,true,2,1372,1,0,2,72805,WMM2,739679,false,false,769,image-keyboard-response,7
true,8,1,2,2,false,d,true,false,0.0-2.0-0.25-0.231-3.231,1,1,0,90,false,stim,false,2,905,1,1,1,72805,WMM2,742110,false,false,772,image-keyboard-response,8
true,8,0,2,2,false,d,true,false,0.0-2.0-0.25-0.232-3.232,1,1,0,81,false,stim,false,2,896,1,1,1,72805,WMM2,744542,false,false,775,image-keyboard-response,9
true,8,0,2,0,true,q,false,true,0.0-2.0-0.25-0.233-3.233,1,1,0,81,false,stim,false,2,1081,1,0,2,72805,WMM2,747148,false,false,778,image-keyboard-response,10
true,8,1,2,1,true,z,false,true,0.0-2.0-0.26-0.234-3.234,1,1,0,90,false,stim,false,1,812,1,1,0,72805,WMM2,749498,false,false,781,image-keyboard-response,11
true,8,1,2,1,true,z,false,true,0.0-2.0-0.26-0.235-3.235,1,1,0,90,false,stim,false,1,687,1,1,0,72805,WMM2,751712,false,false,784,image-keyboard-response,12
true,8,0,2,0,true,q,false,false,0.0-2.0-0.26-0.236-3.236,1,1,0,81,false,stim,false,2,598,1,0,2,72805,WMM2,753844,false,true,787,image-keyboard-response,13
true,8,0,2,2,false,d,true,false,0.0-2.0-0.26-0.237-3.237,1,1,0,81,false,stim,false,2,899,1,1,1,72805,WMM2,756285,false,false,790,image-keyboard-response,14
true,8,0,2,0,true,q,false,true,0.0-2.0-0.26-0.238-3.238,1,1,0,81,false,stim,false,2,675,1,0,2,72805,WMM2,758503,false,false,793,image-keyboard-response,15
true,8,1,2,1,true,z,false,false,0.0-2.0-0.26-0.239-3.239,1,1,0,90,false,stim,false,1,769,1,1,0,72805,WMM2,760794,false,true,796,image-keyboard-response,16
true,8,0,2,0,true,q,false,true,0.0-2.0-0.26-0.240-3.240,1,1,0,81,false,stim,false,2,934,1,0,2,72805,WMM2,763256,false,false,799,image-keyboard-response,17
true,8,2,2,2,true,d,false,true,0.0-2.0-0.26-0.241-3.241,1,1,0,68,false,stim,false,2,1314,1,1,1,72805,WMM2,766100,false,false,802,image-keyboard-response,18
true,8,2,2,2,true,d,false,true,0.0-2.0-0.26-0.242-3.242,1,1,0,68,false,stim,false,2,576,1,1,1,72805,WMM2,768192,false,false,805,image-keyboard-response,19
true,8,1,2,1,true,z,false,true,0.0-2.0-0.27-0.243-3.243,1,1,0,90,false,stim,false,1,928,1,1,0,72805,WMM2,770645,false,false,808,image-keyboard-response,20
true,8,0,2,0,true,q,false,true,0.0-2.0-0.27-0.244-3.244,1,1,0,81,false,stim,false,2,724,1,1,2,72805,WMM2,772900,false,false,811,image-keyboard-response,21
true,8,1,2,1,true,z,false,true,0.0-2.0-0.27-0.245-3.245,1,1,0,90,false,stim,false,1,840,1,0,0,72805,WMM2,775277,false,false,814,image-keyboard-response,22
true,8,2,2,2,true,d,false,false,0.0-2.0-0.27-0.246-3.246,1,1,0,68,false,stim,false,2,960,1,1,1,72805,WMM2,777777,false,true,817,image-keyboard-response,23
true,8,1,2,0,false,q,true,false,0.0-2.0-0.27-0.247-3.247,1,1,0,90,false,stim,false,2,622,1,1,2,72805,WMM2,779939,false,false,820,image-keyboard-response,24
true,8,2,2,2,true,d,false,true,0.0-2.0-0.27-0.248-3.248,1,1,0,68,false,stim,false,2,719,1,1,1,72805,WMM2,782197,false,false,823,image-keyboard-response,25
true,8,0,2,0,true,q,false,false,0.0-2.0-0.27-0.249-3.249,1,1,0,81,false,stim,false,2,1256,1,1,2,72805,WMM2,784991,false,true,826,image-keyboard-response,26
true,8,2,2,2,true,d,false,true,0.0-2.0-0.27-0.250-3.250,1,1,0,68,false,stim,false,2,1006,1,1,1,72805,WMM2,787523,false,false,829,image-keyboard-response,27
true,8,1,2,1,true,z,false,true,0.0-2.0-0.27-0.251-3.251,1,1,0,90,false,stim,false,1,771,1,0,0,72805,WMM2,789828,false,false,832,image-keyboard-response,28
true,8,1,2,1,true,z,false,true,0.0-2.0-0.28-0.252-3.252,1,1,0,90,false,stim,false,1,548,1,0,0,72805,WMM2,791916,false,false,835,image-keyboard-response,29
true,8,0,2,0,true,q,false,false,0.0-2.0-0.28-0.253-3.253,1,1,0,81,false,stim,false,2,1494,1,1,2,72805,WMM2,794939,false,true,838,image-keyboard-response,30
true,9,2,3,2,true,d,false,true,0.0-2.0-0.28-0.254-3.254,0,1,1,68,true,stim,false,2,756,1,1,1,72805,WMM2,797211,false,false,841,image-keyboard-response,1
true,9,2,3,0,false,q,true,true,0.0-2.0-0.28-0.255-3.255,0,1,1,68,false,stim,false,0,947,1,1,2,72805,WMM2,799684,false,true,844,image-keyboard-response,2
true,9,2,3,2,true,d,false,false,0.0-2.0-0.28-0.256-3.256,0,1,1,68,false,stim,false,2,527,1,1,1,72805,WMM2,801745,false,true,847,image-keyboard-response,3
true,9,2,3,2,true,d,false,false,0.0-2.0-0.28-0.257-3.257,0,1,1,68,false,stim,false,2,421,1,1,1,72805,WMM2,803698,false,true,850,image-keyboard-response,4
true,9,2,3,0,false,q,true,true,0.0-2.0-0.28-0.258-3.258,0,1,1,68,false,stim,false,0,688,1,1,2,72805,WMM2,805924,false,true,853,image-keyboard-response,5
true,9,1,3,2,false,d,false,false,0.0-2.0-0.28-0.259-3.259,0,1,1,90,false,stim,true,1,564,1,0,0,72805,WMM2,808021,false,false,856,image-keyboard-response,6
true,9,1,3,2,false,d,false,false,0.0-2.0-0.28-0.260-3.260,0,1,1,90,false,stim,true,1,492,1,0,0,72805,WMM2,810049,false,false,859,image-keyboard-response,7
true,9,0,3,2,false,d,true,false,0.0-2.0-0.29-0.261-3.261,0,1,1,81,false,stim,false,1,967,1,0,0,72805,WMM2,812544,false,false,862,image-keyboard-response,8
true,9,0,3,2,false,d,true,true,0.0-2.0-0.29-0.262-3.262,0,1,1,81,false,stim,false,2,1393,1,1,1,72805,WMM2,815470,false,true,865,image-keyboard-response,9
true,9,2,3,0,false,q,true,false,0.0-2.0-0.29-0.263-3.263,0,1,1,68,false,stim,false,0,943,1,1,2,72805,WMM2,817949,false,false,868,image-keyboard-response,10
true,9,2,3,2,true,d,false,true,0.0-2.0-0.29-0.264-3.264,0,1,1,68,false,stim,false,1,412,1,0,0,72805,WMM2,819898,false,false,871,image-keyboard-response,11
true,9,2,3,0,false,q,true,false,0.0-2.0-0.29-0.265-3.265,0,1,1,68,false,stim,false,0,962,1,1,2,72805,WMM2,822388,false,false,874,image-keyboard-response,12
true,9,0,3,2,false,d,true,true,0.0-2.0-0.29-0.266-3.266,0,1,1,81,false,stim,false,2,643,1,1,1,72805,WMM2,824570,false,true,877,image-keyboard-response,13
true,9,0,3,2,false,d,true,false,0.0-2.0-0.29-0.267-3.267,0,1,1,81,false,stim,false,2,690,1,1,1,72805,WMM2,826786,false,false,880,image-keyboard-response,14
true,9,1,3,2,false,d,false,false,0.0-2.0-0.29-0.268-3.268,0,1,1,90,false,stim,true,1,941,1,0,0,72805,WMM2,829258,false,false,883,image-keyboard-response,15
true,9,2,3,0,false,q,true,false,0.0-2.0-0.29-0.269-3.269,0,1,1,68,false,stim,false,0,1061,1,1,2,72805,WMM2,831858,false,false,886,image-keyboard-response,16
true,9,0,3,0,true,q,false,true,0.0-2.0-0.30-0.270-3.270,0,1,1,81,false,stim,false,0,264,1,1,2,72805,WMM2,833651,false,false,889,image-keyboard-response,17
true,9,0,3,2,false,d,true,false,0.0-2.0-0.30-0.271-3.271,0,1,1,81,false,stim,false,1,447,1,0,0,72805,WMM2,835635,false,false,892,image-keyboard-response,18
true,9,2,3,2,true,d,false,true,0.0-2.0-0.30-0.272-3.272,0,1,1,68,false,stim,false,1,1082,1,0,0,72805,WMM2,838259,false,false,895,image-keyboard-response,19
true,9,0,3,0,true,q,false,false,0.0-2.0-0.30-0.273-3.273,0,1,1,81,false,stim,false,0,571,1,1,2,72805,WMM2,840368,false,true,898,image-keyboard-response,20
true,9,0,3,2,false,d,true,true,0.0-2.0-0.30-0.274-3.274,0,1,1,81,false,stim,false,2,746,1,1,1,72805,WMM2,842673,false,true,901,image-keyboard-response,21
true,9,0,3,2,false,d,true,false,0.0-2.0-0.30-0.275-3.275,0,1,1,81,false,stim,false,2,478,1,1,1,72805,WMM2,844695,false,false,904,image-keyboard-response,22
true,9,0,3,2,false,d,true,false,0.0-2.0-0.30-0.276-3.276,0,1,1,81,false,stim,false,2,441,1,1,1,72805,WMM2,846678,false,false,907,image-keyboard-response,23
true,9,2,3,2,true,d,false,true,0.0-2.0-0.30-0.277-3.277,0,1,1,68,false,stim,false,1,669,1,0,0,72805,WMM2,848885,false,false,910,image-keyboard-response,24
true,9,0,3,0,true,q,false,true,0.0-2.0-0.30-0.278-3.278,0,1,1,81,false,stim,false,0,1004,1,1,2,72805,WMM2,851420,false,false,913,image-keyboard-response,25
true,9,0,3,0,true,q,false,false,0.0-2.0-0.31-0.279-3.279,0,1,1,81,false,stim,false,0,466,1,1,2,72805,WMM2,853413,false,true,916,image-keyboard-response,26
true,9,0,3,0,true,q,false,false,0.0-2.0-0.31-0.280-3.280,0,1,1,81,false,stim,false,0,547,1,1,2,72805,WMM2,855495,false,true,919,image-keyboard-response,27
true,9,1,3,0,false,q,true,false,0.0-2.0-0.31-0.281-3.281,0,1,1,90,false,stim,false,0,1148,1,1,2,72805,WMM2,858185,false,false,922,image-keyboard-response,28
true,9,1,3,2,false,d,true,false,0.0-2.0-0.31-0.282-3.282,0,1,1,90,false,stim,false,2,560,1,1,1,72805,WMM2,860278,false,false,925,image-keyboard-response,29
true,9,2,3,2,true,d,false,true,0.0-2.0-0.31-0.283-3.283,0,1,1,68,false,stim,false,1,578,1,0,0,72805,WMM2,862394,false,false,928,image-keyboard-response,30
true,9,2,3,2,true,d,false,true,0.0-2.0-0.31-0.284-3.284,0,1,1,68,false,stim,false,2,860,1,1,1,72805,WMM2,864795,false,false,931,image-keyboard-response,31
true,9,2,3,2,true,d,false,true,0.0-2.0-0.31-0.285-3.285,0,1,1,68,false,stim,false,1,565,1,0,0,72805,WMM2,866902,false,false,934,image-keyboard-response,32
true,9,2,3,2,true,d,false,true,0.0-2.0-0.31-0.286-3.286,0,1,1,68,false,stim,false,2,489,1,1,1,72805,WMM2,868925,false,false,937,image-keyboard-response,33
true,9,2,3,2,true,d,false,true,0.0-2.0-0.31-0.287-3.287,0,1,1,68,false,stim,false,1,475,1,0,0,72805,WMM2,870932,false,false,940,image-keyboard-response,34
true,9,2,3,0,false,q,true,false,0.0-2.0-0.32-0.288-3.288,0,1,1,68,false,stim,false,0,438,1,1,2,72805,WMM2,872915,false,false,943,image-keyboard-response,35
true,9,0,3,0,true,q,false,true,0.0-2.0-0.32-0.289-3.289,0,1,1,81,false,stim,false,0,645,1,1,2,72805,WMM2,875092,false,false,946,image-keyboard-response,36
true,9,2,3,2,true,d,false,true,0.0-2.0-0.32-0.290-3.290,0,1,1,68,false,stim,false,2,621,1,1,1,72805,WMM2,877249,false,false,949,image-keyboard-response,37
true,9,2,3,2,true,d,false,true,0.0-2.0-0.32-0.291-3.291,0,1,1,68,false,stim,false,2,554,1,1,1,72805,WMM2,879331,false,false,952,image-keyboard-response,38
true,9,2,3,2,true,d,false,true,0.0-2.0-0.32-0.292-3.292,0,1,1,68,false,stim,false,1,536,1,0,0,72805,WMM2,881413,false,false,955,image-keyboard-response,39
true,9,2,3,2,true,d,false,true,0.0-2.0-0.32-0.293-3.293,0,1,1,68,false,stim,false,1,463,1,0,0,72805,WMM2,883421,false,false,958,image-keyboard-response,40
true,9,2,3,0,false,q,true,false,0.0-2.0-0.32-0.294-3.294,0,1,1,68,false,stim,false,0,1138,1,1,2,72805,WMM2,886096,false,false,961,image-keyboard-response,41
true,9,2,3,2,true,d,false,true,0.0-2.0-0.32-0.295-3.295,0,1,1,68,false,stim,false,1,541,1,0,0,72805,WMM2,888168,false,false,964,image-keyboard-response,42
true,9,2,3,2,true,d,false,true,0.0-2.0-0.32-0.296-3.296,0,1,1,68,false,stim,false,2,529,1,1,1,72805,WMM2,890236,false,false,967,image-keyboard-response,43
true,9,2,3,2,true,d,false,true,0.0-2.0-0.33-0.297-3.297,0,1,1,68,false,stim,false,1,641,1,0,0,72805,WMM2,892418,false,false,970,image-keyboard-response,44
true,9,0,3,0,true,q,false,true,0.0-2.0-0.33-0.298-3.298,0,1,1,81,false,stim,false,0,472,1,1,2,72805,WMM2,894429,false,false,973,image-keyboard-response,45
true,9,2,3,2,true,d,false,true,0.0-2.0-0.33-0.299-3.299,0,1,1,68,false,stim,false,2,470,1,1,1,72805,WMM2,896427,false,false,976,image-keyboard-response,46
true,9,2,3,2,true,d,false,true,0.0-2.0-0.33-0.300-3.300,0,1,1,68,false,stim,false,2,428,1,1,1,72805,WMM2,898395,false,false,979,image-keyboard-response,47
true,9,2,3,0,false,q,true,false,0.0-2.0-0.33-0.301-3.301,0,1,1,68,false,stim,false,0,575,1,1,2,72805,WMM2,900502,false,false,982,image-keyboard-response,48
true,9,2,3,2,true,d,false,true,0.0-2.0-0.33-0.302-3.302,0,1,1,68,false,stim,false,2,651,1,1,1,72805,WMM2,902698,false,false,985,image-keyboard-response,49
true,9,2,3,2,true,d,false,true,0.0-2.0-0.33-0.303-3.303,0,1,1,68,false,stim,false,1,555,1,0,0,72805,WMM2,904780,false,false,988,image-keyboard-response,50
true,9,2,3,2,true,d,false,true,0.0-2.0-0.33-0.304-3.304,0,1,1,68,false,stim,false,1,441,1,0,0,72805,WMM2,906768,false,false,991,image-keyboard-response,51
true,9,0,3,0,true,q,false,true,0.0-2.0-0.33-0.305-3.305,0,1,1,81,false,stim,false,0,460,1,0,2,72805,WMM2,908766,false,false,994,image-keyboard-response,52
true,9,2,3,2,true,d,false,true,0.0-2.0-0.34-0.306-3.306,0,1,1,68,false,stim,false,1,547,1,0,0,72805,WMM2,910848,false,false,997,image-keyboard-response,53
true,9,2,3,2,true,d,false,true,0.0-2.0-0.34-0.307-3.307,0,1,1,68,false,stim,false,2,847,1,1,1,72805,WMM2,913224,false,false,1000,image-keyboard-response,54
true,9,2,3,2,true,d,false,true,0.0-2.0-0.34-0.308-3.308,0,1,1,68,false,stim,false,2,484,1,1,1,72805,WMM2,915261,false,false,1003,image-keyboard-response,55
true,9,0,3,0,true,q,false,true,0.0-2.0-0.34-0.309-3.309,0,1,1,81,false,stim,false,0,721,1,0,2,72805,WMM2,917518,false,false,1006,image-keyboard-response,56
true,9,0,3,0,true,q,false,true,0.0-2.0-0.34-0.310-3.310,0,1,1,81,false,stim,false,0,876,1,0,2,72805,WMM2,919914,false,false,1009,image-keyboard-response,57
true,9,2,3,2,true,d,false,true,0.0-2.0-0.34-0.311-3.311,0,1,1,68,false,stim,false,2,723,1,1,1,72805,WMM2,922179,false,false,1012,image-keyboard-response,58
true,9,2,3,2,true,d,false,true,0.0-2.0-0.34-0.312-3.312,0,1,1,68,false,stim,false,1,826,1,0,0,72805,WMM2,924532,false,false,1015,image-keyboard-response,59
true,9,0,3,0,true,q,false,true,0.0-2.0-0.34-0.313-3.313,0,1,1,81,false,stim,false,0,796,1,0,2,72805,WMM2,926863,false,false,1018,image-keyboard-response,60
true,10,2,1,0,false,q,false,false,0.0-2.0-0.34-0.314-3.314,0,1,0,68,true,stim,true,2,1680,1,0,0,72805,WMM2,930067,false,false,1021,image-keyboard-response,1
true,10,2,1,0,false,q,false,false,0.0-2.0-0.35-0.315-3.315,0,1,0,68,false,stim,true,2,467,1,0,0,72805,WMM2,932074,false,false,1024,image-keyboard-response,2
true,10,0,1,2,false,d,false,true,0.0-2.0-0.35-0.316-3.316,0,1,0,81,false,stim,true,0,613,1,0,2,72805,WMM2,934220,false,true,1027,image-keyboard-response,3
true,10,1,1,0,false,q,true,false,0.0-2.0-0.35-0.317-3.317,0,1,0,90,false,stim,false,2,471,1,0,0,72805,WMM2,936208,false,false,1030,image-keyboard-response,4
true,10,2,1,2,true,d,false,true,0.0-2.0-0.35-0.318-3.318,0,1,0,68,false,stim,false,2,981,1,1,1,72805,WMM2,938719,false,false,1033,image-keyboard-response,5
true,10,2,1,2,true,d,false,true,0.0-2.0-0.35-0.319-3.319,0,1,0,68,false,stim,false,2,504,1,1,1,72805,WMM2,940756,false,false,1036,image-keyboard-response,6
true,10,0,1,0,true,q,false,true,0.0-2.0-0.35-0.320-3.320,0,1,0,81,false,stim,false,2,477,1,0,0,72805,WMM2,942774,false,false,1039,image-keyboard-response,7
true,10,0,1,2,false,d,false,false,0.0-2.0-0.35-0.321-3.321,0,1,0,81,false,stim,true,0,431,1,0,2,72805,WMM2,944747,false,false,1042,image-keyboard-response,8
true,10,2,1,2,true,d,false,true,0.0-2.0-0.35-0.322-3.322,0,1,0,68,false,stim,false,2,821,1,1,1,72805,WMM2,947097,false,false,1045,image-keyboard-response,9
true,10,0,1,2,false,d,false,true,0.0-2.0-0.35-0.323-3.323,0,1,0,81,false,stim,true,0,658,1,0,2,72805,WMM2,949295,false,true,1048,image-keyboard-response,10
true,10,2,1,2,true,d,false,true,0.0-2.0-0.36-0.324-3.324,0,1,0,68,false,stim,false,2,768,1,1,1,72805,WMM2,951606,false,false,1051,image-keyboard-response,11
true,10,0,1,2,false,d,false,false,0.0-2.0-0.36-0.325-3.325,0,1,0,81,false,stim,true,0,1145,1,0,2,72805,WMM2,954282,false,false,1054,image-keyboard-response,12
true,10,1,1,2,false,d,true,false,0.0-2.0-0.36-0.326-3.326,0,1,0,90,false,stim,false,0,970,1,0,2,72805,WMM2,956787,false,false,1057,image-keyboard-response,13
true,10,0,1,0,true,q,false,true,0.0-2.0-0.36-0.327-3.327,0,1,0,81,false,stim,false,2,702,1,0,0,72805,WMM2,959019,false,false,1060,image-keyboard-response,14
true,10,0,1,0,true,q,false,true,0.0-2.0-0.36-0.328-3.328,0,1,0,81,false,stim,false,2,963,1,0,0,72805,WMM2,961520,false,false,1063,image-keyboard-response,15
true,10,0,1,0,true,q,false,true,0.0-2.0-0.36-0.329-3.329,0,1,0,81,false,stim,false,2,450,1,0,0,72805,WMM2,963507,false,false,1066,image-keyboard-response,16
true,10,2,1,2,true,d,false,true,0.0-2.0-0.36-0.330-3.330,0,1,0,68,false,stim,false,0,932,1,0,2,72805,WMM2,965968,false,false,1069,image-keyboard-response,17
true,10,2,1,2,true,d,false,true,0.0-2.0-0.36-0.331-3.331,0,1,0,68,false,stim,false,2,470,1,1,1,72805,WMM2,967966,false,false,1072,image-keyboard-response,18
true,10,2,1,2,true,d,false,true,0.0-2.0-0.36-0.332-3.332,0,1,0,68,false,stim,false,2,439,1,1,1,72805,WMM2,969936,false,false,1075,image-keyboard-response,19
true,10,2,1,2,true,d,false,true,0.0-2.0-0.37-0.333-3.333,0,1,0,68,false,stim,false,0,471,1,0,2,72805,WMM2,971938,false,false,1078,image-keyboard-response,20
true,10,2,1,2,true,d,false,false,0.0-2.0-0.37-0.334-3.334,0,1,0,68,false,stim,false,2,552,1,1,1,72805,WMM2,974019,false,true,1081,image-keyboard-response,21
true,10,2,1,2,true,d,false,true,0.0-2.0-0.37-0.335-3.335,0,1,0,68,false,stim,false,2,858,1,1,1,72805,WMM2,976405,false,false,1084,image-keyboard-response,22
true,10,0,1,0,true,q,false,true,0.0-2.0-0.37-0.336-3.336,0,1,0,81,false,stim,false,2,745,1,1,0,72805,WMM2,978692,false,false,1087,image-keyboard-response,23
true,10,2,1,2,true,d,false,false,0.0-2.0-0.37-0.337-3.337,0,1,0,68,false,stim,false,0,578,1,0,2,72805,WMM2,980805,false,true,1090,image-keyboard-response,24
true,10,0,1,0,true,q,false,false,0.0-2.0-0.37-0.338-3.338,0,1,0,81,false,stim,false,2,630,1,1,0,72805,WMM2,982977,false,true,1093,image-keyboard-response,25
true,10,2,1,2,true,d,false,true,0.0-2.0-0.37-0.339-3.339,0,1,0,68,false,stim,false,0,580,1,0,2,72805,WMM2,985088,false,false,1096,image-keyboard-response,26
true,10,2,1,2,true,d,false,false,0.0-2.0-0.37-0.340-3.340,0,1,0,68,false,stim,false,2,599,1,1,1,72805,WMM2,987227,false,true,1099,image-keyboard-response,27
true,10,0,1,0,true,q,false,true,0.0-2.0-0.37-0.341-3.341,0,1,0,81,false,stim,false,2,686,1,1,0,72805,WMM2,989453,false,false,1102,image-keyboard-response,28
true,10,1,1,2,false,d,true,false,0.0-2.0-0.38-0.342-3.342,0,1,0,90,false,stim,false,2,499,1,1,1,72805,WMM2,991486,false,false,1105,image-keyboard-response,29
true,10,0,1,0,true,q,false,true,0.0-2.0-0.38-0.343-3.343,0,1,0,81,false,stim,false,2,895,1,1,0,72805,WMM2,993922,false,false,1108,image-keyboard-response,30
true,11,0,2,0,true,q,false,true,0.0-2.0-0.38-0.344-3.344,1,1,0,81,true,stim,false,0,512,1,1,0,72805,WMM2,995959,false,false,1111,image-keyboard-response,1
true,11,0,2,2,false,d,true,false,0.0-2.0-0.38-0.345-3.345,1,1,0,81,false,stim,false,2,605,1,1,1,72805,WMM2,998101,false,false,1114,image-keyboard-response,2
true,11,2,2,2,true,d,false,true,0.0-2.0-0.38-0.346-3.346,1,1,0,68,false,stim,false,2,577,1,1,1,72805,WMM2,1000214,false,false,1117,image-keyboard-response,3
true,11,2,2,1,false,z,false,false,0.0-2.0-0.38-0.347-3.347,1,1,0,68,false,stim,true,2,1202,1,0,2,72805,WMM2,1002939,false,false,1120,image-keyboard-response,4
true,11,1,2,1,true,z,false,true,0.0-2.0-0.38-0.348-3.348,1,1,0,90,false,stim,false,2,726,1,0,2,72805,WMM2,1005200,false,false,1123,image-keyboard-response,5
true,11,0,2,0,true,q,false,true,0.0-2.0-0.38-0.349-3.349,1,1,0,81,false,stim,false,0,645,1,1,0,72805,WMM2,1007363,false,false,1126,image-keyboard-response,6
true,11,1,2,1,true,z,false,true,0.0-2.0-0.38-0.350-3.350,1,1,0,90,false,stim,false,2,580,1,0,2,72805,WMM2,1009463,false,false,1129,image-keyboard-response,7
true,11,1,2,1,true,z,false,true,0.0-2.0-0.39-0.351-3.351,1,1,0,90,false,stim,false,2,473,1,0,2,72805,WMM2,1011456,false,false,1132,image-keyboard-response,8
true,11,0,2,0,true,q,false,true,0.0-2.0-0.39-0.352-3.352,1,1,0,81,false,stim,false,0,708,1,1,0,72805,WMM2,1013695,false,false,1135,image-keyboard-response,9
true,11,1,2,1,true,z,false,true,0.0-2.0-0.39-0.353-3.353,1,1,0,90,false,stim,false,2,590,1,0,2,72805,WMM2,1015817,false,false,1138,image-keyboard-response,10
true,11,2,2,2,true,d,false,true,0.0-2.0-0.39-0.354-3.354,1,1,0,68,false,stim,false,2,1200,1,1,1,72805,WMM2,1018547,false,false,1141,image-keyboard-response,11
true,11,2,2,2,true,d,false,false,0.0-2.0-0.39-0.355-3.355,1,1,0,68,false,stim,false,2,497,1,1,1,72805,WMM2,1020584,false,true,1144,image-keyboard-response,12
true,11,0,2,0,true,q,false,true,0.0-2.0-0.39-0.356-3.356,1,1,0,81,false,stim,false,0,615,1,1,0,72805,WMM2,1022742,false,false,1147,image-keyboard-response,13
true,11,2,2,2,true,d,false,true,0.0-2.0-0.39-0.357-3.357,1,1,0,68,false,stim,false,2,940,1,1,1,72805,WMM2,1025206,false,false,1150,image-keyboard-response,14
true,11,1,2,1,true,z,false,true,0.0-2.0-0.39-0.358-3.358,1,1,0,90,false,stim,false,2,663,1,0,2,72805,WMM2,1027409,false,false,1153,image-keyboard-response,15
true,11,0,2,0,true,q,false,true,0.0-2.0-0.39-0.359-3.359,1,1,0,81,false,stim,false,0,904,1,1,0,72805,WMM2,1029851,false,false,1156,image-keyboard-response,16
true,11,0,2,0,true,q,false,true,0.0-2.0-0.40-0.360-3.360,1,1,0,81,false,stim,false,0,501,1,1,0,72805,WMM2,1031878,false,false,1159,image-keyboard-response,17
true,11,2,2,1,false,z,false,false,0.0-2.0-0.40-0.361-3.361,1,1,0,68,false,stim,true,2,818,1,0,2,72805,WMM2,1034235,false,false,1162,image-keyboard-response,18
true,11,1,2,1,true,z,false,true,0.0-2.0-0.40-0.362-3.362,1,1,0,90,false,stim,false,2,760,1,0,2,72805,WMM2,1036537,false,false,1165,image-keyboard-response,19
true,11,0,2,0,true,q,false,true,0.0-2.0-0.40-0.363-3.363,1,1,0,81,false,stim,false,0,651,1,1,0,72805,WMM2,1038718,false,false,1168,image-keyboard-response,20
true,11,2,2,2,true,d,false,false,0.0-2.0-0.40-0.364-3.364,1,1,0,68,false,stim,false,2,1430,1,1,1,72805,WMM2,1041678,false,true,1171,image-keyboard-response,21
true,11,2,2,2,true,d,false,true,0.0-2.0-0.40-0.365-3.365,1,1,0,68,false,stim,false,2,542,1,1,1,72805,WMM2,1043751,false,false,1174,image-keyboard-response,22
true,11,0,2,0,true,q,false,true,0.0-2.0-0.40-0.366-3.366,1,1,0,81,false,stim,false,0,900,1,1,0,72805,WMM2,1046187,false,false,1177,image-keyboard-response,23
true,11,2,2,2,true,d,false,true,0.0-2.0-0.40-0.367-3.367,1,1,0,68,false,stim,false,2,1219,1,1,1,72805,WMM2,1048946,false,false,1180,image-keyboard-response,24
true,11,1,2,1,true,z,false,false,0.0-2.0-0.40-0.368-3.368,1,1,0,90,false,stim,false,2,970,1,0,2,72805,WMM2,1051457,false,true,1183,image-keyboard-response,25
true,11,1,2,1,true,z,false,true,0.0-2.0-0.41-0.369-3.369,1,1,0,90,false,stim,false,2,449,1,1,2,72805,WMM2,1053445,false,false,1186,image-keyboard-response,26
true,11,1,2,1,true,z,false,false,0.0-2.0-0.41-0.370-3.370,1,1,0,90,false,stim,false,2,456,1,1,2,72805,WMM2,1055433,false,true,1189,image-keyboard-response,27
true,11,2,2,2,true,d,false,true,0.0-2.0-0.41-0.371-3.371,1,1,0,68,false,stim,false,2,1978,1,0,1,72805,WMM2,1058935,false,false,1192,image-keyboard-response,28
true,11,0,2,0,true,q,false,true,0.0-2.0-0.41-0.372-3.372,1,1,0,81,false,stim,false,0,695,1,0,0,72805,WMM2,1061172,false,false,1195,image-keyboard-response,29
true,11,2,2,2,true,d,false,true,0.0-2.0-0.41-0.373-3.373,1,1,0,68,false,stim,false,2,1106,1,0,1,72805,WMM2,1063802,false,false,1198,image-keyboard-response,30
true,11,0,2,0,true,q,false,true,0.0-2.0-0.41-0.374-3.374,1,1,0,81,false,stim,false,0,580,1,0,0,72805,WMM2,1065930,false,false,1201,image-keyboard-response,31
true,11,1,2,1,true,z,false,true,0.0-2.0-0.41-0.375-3.375,1,1,0,90,false,stim,false,2,800,1,1,2,72805,WMM2,1068247,false,false,1204,image-keyboard-response,32
true,11,0,2,0,true,q,false,true,0.0-2.0-0.41-0.376-3.376,1,1,0,81,false,stim,false,0,722,1,0,0,72805,WMM2,1070508,false,false,1207,image-keyboard-response,33
true,11,2,2,2,true,d,false,true,0.0-2.0-0.41-0.377-3.377,1,1,0,68,false,stim,false,2,813,1,0,1,72805,WMM2,1072859,false,false,1210,image-keyboard-response,34
true,11,2,2,2,true,d,false,true,0.0-2.0-0.42-0.378-3.378,1,1,0,68,false,stim,false,2,1027,1,0,1,72805,WMM2,1075416,false,false,1213,image-keyboard-response,35
true,12,2,1,0,false,q,false,true,0.0-2.0-0.42-0.379-3.379,0,0,1,68,true,stim,true,2,480,1,0,1,72805,WMM2,1077428,false,true,1216,image-keyboard-response,1
true,12,1,1,1,true,z,false,true,0.0-2.0-0.42-0.380-3.380,0,0,1,90,false,stim,false,1,1231,1,1,2,72805,WMM2,1080197,false,false,1219,image-keyboard-response,2
true,12,0,1,2,false,d,false,false,0.0-2.0-0.42-0.381-3.381,0,0,1,81,false,stim,true,0,936,1,0,0,72805,WMM2,1082665,false,false,1222,image-keyboard-response,3
true,12,1,1,1,true,z,false,true,0.0-2.0-0.42-0.382-3.382,0,0,1,90,false,stim,false,1,625,1,1,2,72805,WMM2,1084831,false,false,1225,image-keyboard-response,4
true,12,2,1,0,false,q,false,false,0.0-2.0-0.42-0.383-3.383,0,0,1,68,false,stim,true,2,776,1,0,1,72805,WMM2,1087143,false,false,1228,image-keyboard-response,5
true,12,2,1,2,true,d,false,true,0.0-2.0-0.42-0.384-3.384,0,0,1,68,false,stim,false,0,759,1,0,0,72805,WMM2,1089426,false,false,1231,image-keyboard-response,6
true,12,2,1,2,true,d,false,true,0.0-2.0-0.42-0.385-3.385,0,0,1,68,false,stim,false,0,635,1,0,0,72805,WMM2,1091602,false,false,1234,image-keyboard-response,7
true,12,1,1,1,true,z,false,true,0.0-2.0-0.42-0.386-3.386,0,0,1,90,false,stim,false,1,652,1,1,2,72805,WMM2,1093778,false,false,1237,image-keyboard-response,8
true,12,0,1,0,true,q,false,true,0.0-2.0-0.43-0.387-3.387,0,0,1,81,false,stim,false,2,520,1,0,1,72805,WMM2,1095827,false,false,1240,image-keyboard-response,9
true,12,2,1,2,true,d,false,true,0.0-2.0-0.43-0.388-3.388,0,0,1,68,false,stim,false,0,1190,1,0,0,72805,WMM2,1098547,false,false,1243,image-keyboard-response,10
true,12,1,1,1,true,z,false,true,0.0-2.0-0.43-0.389-3.389,0,0,1,90,false,stim,false,1,593,1,1,2,72805,WMM2,1100670,false,false,1246,image-keyboard-response,11
true,12,0,1,0,true,q,false,true,0.0-2.0-0.43-0.390-3.390,0,0,1,81,false,stim,false,2,735,1,0,1,72805,WMM2,1102932,false,false,1249,image-keyboard-response,12
true,12,2,1,2,true,d,false,true,0.0-2.0-0.43-0.391-3.391,0,0,1,68,false,stim,false,0,1324,1,0,0,72805,WMM2,1105792,false,false,1252,image-keyboard-response,13
true,12,0,1,0,true,q,false,true,0.0-2.0-0.43-0.392-3.392,0,0,1,81,false,stim,false,2,687,1,0,1,72805,WMM2,1108014,false,false,1255,image-keyboard-response,14
true,12,1,1,1,true,z,false,true,0.0-2.0-0.43-0.393-3.393,0,0,1,90,false,stim,false,1,788,1,1,2,72805,WMM2,1110335,false,false,1258,image-keyboard-response,15
true,12,1,1,1,true,z,false,false,0.0-2.0-0.43-0.394-3.394,0,0,1,90,false,stim,false,1,469,1,1,2,72805,WMM2,1112337,false,true,1261,image-keyboard-response,16
true,12,2,1,2,true,d,false,false,0.0-2.0-0.43-0.395-3.395,0,0,1,68,false,stim,false,0,1095,1,0,0,72805,WMM2,1114964,false,true,1264,image-keyboard-response,17
true,12,1,1,1,true,z,false,false,0.0-2.0-0.44-0.396-3.396,0,0,1,90,false,stim,false,1,663,1,1,2,72805,WMM2,1117161,false,true,1267,image-keyboard-response,18
true,12,1,1,2,false,d,true,false,0.0-2.0-0.44-0.397-3.397,0,0,1,90,false,stim,false,0,1483,1,0,0,72805,WMM2,1120180,false,false,1270,image-keyboard-response,19
true,12,0,1,2,false,d,false,false,0.0-2.0-0.44-0.398-3.398,0,0,1,81,false,stim,true,0,989,1,0,0,72805,WMM2,1122697,false,false,1273,image-keyboard-response,20
true,12,2,1,1,false,z,true,false,0.0-2.0-0.44-0.399-3.399,0,0,1,68,false,stim,false,1,1036,1,1,2,72805,WMM2,1125262,false,false,1276,image-keyboard-response,21
true,12,2,1,2,true,d,false,true,0.0-2.0-0.44-0.400-3.400,0,0,1,68,false,stim,false,0,681,1,0,0,72805,WMM2,1127484,false,false,1279,image-keyboard-response,22
true,12,0,1,0,true,q,false,true,0.0-2.0-0.44-0.401-3.401,0,0,1,81,false,stim,false,2,740,1,0,1,72805,WMM2,1129766,false,false,1282,image-keyboard-response,23
true,12,0,1,0,true,q,false,true,0.0-2.0-0.44-0.402-3.402,0,0,1,81,false,stim,false,2,542,1,0,1,72805,WMM2,1131848,false,false,1285,image-keyboard-response,24
true,12,0,1,0,true,q,false,false,0.0-2.0-0.44-0.403-3.403,0,0,1,81,false,stim,false,2,465,1,0,1,72805,WMM2,1133852,false,true,1288,image-keyboard-response,25
true,12,1,1,1,true,z,false,true,0.0-2.0-0.44-0.404-3.404,0,0,1,90,false,stim,false,1,696,1,1,2,72805,WMM2,1136084,false,false,1291,image-keyboard-response,26
true,12,1,1,1,true,z,false,true,0.0-2.0-0.45-0.405-3.405,0,0,1,90,false,stim,false,1,491,1,1,2,72805,WMM2,1138116,false,false,1294,image-keyboard-response,27
true,12,1,1,1,true,z,false,true,0.0-2.0-0.45-0.406-3.406,0,0,1,90,false,stim,false,1,427,1,1,2,72805,WMM2,1140075,false,false,1297,image-keyboard-response,28
true,12,1,1,1,true,z,false,true,0.0-2.0-0.45-0.407-3.407,0,0,1,90,false,stim,false,1,390,1,1,2,72805,WMM2,1141998,false,false,1300,image-keyboard-response,29
true,12,0,1,0,true,q,false,false,0.0-2.0-0.45-0.408-3.408,0,0,1,81,false,stim,false,2,1070,1,0,1,72805,WMM2,1144618,false,true,1303,image-keyboard-response,30
true,12,1,1,0,false,q,true,false,0.0-2.0-0.45-0.409-3.409,0,0,1,90,false,stim,false,2,722,1,0,1,72805,WMM2,1146870,false,false,1306,image-keyboard-response,31
true,12,2,1,2,true,d,false,true,0.0-2.0-0.45-0.410-3.410,0,0,1,68,false,stim,false,0,895,1,0,0,72805,WMM2,1149302,false,false,1309,image-keyboard-response,32
true,12,2,1,2,true,d,false,true,0.0-2.0-0.45-0.411-3.411,0,0,1,68,false,stim,false,0,457,1,0,0,72805,WMM2,1151305,false,false,1312,image-keyboard-response,33
true,12,2,1,0,false,q,false,false,0.0-2.0-0.45-0.412-3.412,0,0,1,68,false,stim,true,2,422,1,0,1,72805,WMM2,1153269,false,false,1315,image-keyboard-response,34
true,12,2,1,2,true,d,false,true,0.0-2.0-0.45-0.413-3.413,0,0,1,68,false,stim,false,0,757,1,0,0,72805,WMM2,1155565,false,false,1318,image-keyboard-response,35
true,12,2,1,2,true,d,false,true,0.0-2.0-0.46-0.414-3.414,0,0,1,68,false,stim,false,0,395,1,0,0,72805,WMM2,1157503,false,false,1321,image-keyboard-response,36
true,12,2,1,2,true,d,false,true,0.0-2.0-0.46-0.415-3.415,0,0,1,68,false,stim,false,0,448,1,0,0,72805,WMM2,1159496,false,false,1324,image-keyboard-response,37
true,12,2,1,2,true,d,false,true,0.0-2.0-0.46-0.416-3.416,0,0,1,68,false,stim,false,0,400,1,0,0,72805,WMM2,1161429,false,false,1327,image-keyboard-response,38
true,12,0,1,0,true,q,false,true,0.0-2.0-0.46-0.417-3.417,0,0,1,81,false,stim,false,2,2015,1,0,1,72805,WMM2,1164982,false,false,1330,image-keyboard-response,39
true,12,1,1,1,true,z,false,true,0.0-2.0-0.46-0.418-3.418,0,0,1,90,false,stim,false,1,691,1,1,2,72805,WMM2,1167218,false,false,1333,image-keyboard-response,40
true,12,0,1,0,true,q,false,true,0.0-2.0-0.46-0.419-3.419,0,0,1,81,false,stim,false,2,732,1,0,1,72805,WMM2,1169490,false,false,1336,image-keyboard-response,41
true,12,1,1,1,true,z,false,true,0.0-2.0-0.46-0.420-3.420,0,0,1,90,false,stim,false,1,745,1,0,2,72805,WMM2,1171782,false,false,1339,image-keyboard-response,42
true,12,0,1,0,true,q,false,true,0.0-2.0-0.46-0.421-3.421,0,0,1,81,false,stim,false,2,546,1,1,1,72805,WMM2,1173865,false,false,1342,image-keyboard-response,43
true,12,1,1,1,true,z,false,false,0.0-2.0-0.46-0.422-3.422,0,0,1,90,false,stim,false,1,2209,1,0,2,72805,WMM2,1177606,false,true,1345,image-keyboard-response,44
true,12,1,1,1,true,z,false,true,0.0-2.0-0.47-0.423-3.423,0,0,1,90,false,stim,false,1,1070,1,0,2,72805,WMM2,1180207,false,false,1348,image-keyboard-response,45
true,12,2,1,2,true,d,false,false,0.0-2.0-0.47-0.424-3.424,0,0,1,68,false,stim,false,0,1216,1,1,0,72805,WMM2,1182953,false,true,1351,image-keyboard-response,46
true,12,1,1,1,true,z,false,true,0.0-2.0-0.47-0.425-3.425,0,0,1,90,false,stim,false,1,2043,1,0,2,72805,WMM2,1186520,false,false,1354,image-keyboard-response,47
true,12,0,1,0,true,q,false,true,0.0-2.0-0.47-0.426-3.426,0,0,1,81,false,stim,false,2,1571,1,1,1,72805,WMM2,1189628,false,false,1357,image-keyboard-response,48
true,12,2,1,2,true,d,false,false,0.0-2.0-0.47-0.427-3.427,0,0,1,68,false,stim,false,0,1118,1,1,0,72805,WMM2,1192275,false,true,1360,image-keyboard-response,49
true,12,2,1,2,true,d,false,true,0.0-2.0-0.47-0.428-3.428,0,0,1,68,false,stim,false,0,390,1,1,0,72805,WMM2,1194207,false,false,1363,image-keyboard-response,50
true,12,0,1,0,true,q,false,false,0.0-2.0-0.47-0.429-3.429,0,0,1,81,false,stim,false,2,1290,1,1,1,72805,WMM2,1197037,false,true,1366,image-keyboard-response,51
true,13,1,3,0,false,q,true,false,0.0-2.0-0.47-0.430-3.430,1,1,0,90,true,stim,false,0,832,1,1,1,72805,WMM2,1199400,false,false,1369,image-keyboard-response,1
true,13,1,3,0,false,q,false,false,0.0-2.0-0.47-0.431-3.431,1,1,0,90,false,stim,true,1,511,1,0,2,72805,WMM2,1201447,false,false,1372,image-keyboard-response,2
true,13,1,3,0,false,q,false,false,0.0-2.0-0.48-0.432-3.432,1,1,0,90,false,stim,true,1,698,1,0,2,72805,WMM2,1203665,false,false,1375,image-keyboard-response,3
true,13,0,3,0,true,q,false,true,0.0-2.0-0.48-0.433-3.433,1,1,0,81,false,stim,false,0,660,1,1,1,72805,WMM2,1205867,false,false,1378,image-keyboard-response,4
true,13,2,3,2,true,d,false,true,0.0-2.0-0.48-0.434-3.434,1,1,0,68,false,stim,false,2,1109,1,1,0,72805,WMM2,1208507,false,false,1381,image-keyboard-response,5
true,13,2,3,2,true,d,false,true,0.0-2.0-0.48-0.435-3.435,1,1,0,68,false,stim,false,2,430,1,1,0,72805,WMM2,1210466,false,false,1384,image-keyboard-response,6
true,13,0,3,0,true,q,false,true,0.0-2.0-0.48-0.436-3.436,1,1,0,81,false,stim,false,0,1339,1,1,1,72805,WMM2,1213336,false,false,1387,image-keyboard-response,7
true,13,0,3,0,true,q,false,false,0.0-2.0-0.48-0.437-3.437,1,1,0,81,false,stim,false,1,890,1,0,2,72805,WMM2,1215767,false,true,1390,image-keyboard-response,8
true,13,0,3,0,true,q,false,true,0.0-2.0-0.48-0.438-3.438,1,1,0,81,false,stim,false,0,599,1,1,1,72805,WMM2,1217905,false,false,1393,image-keyboard-response,9
true,13,2,3,0,false,q,true,false,0.0-2.0-0.48-0.439-3.439,1,1,0,68,false,stim,false,1,720,1,0,2,72805,WMM2,1220167,false,false,1396,image-keyboard-response,10
true,13,2,3,2,true,d,false,true,0.0-2.0-0.48-0.440-3.440,1,1,0,68,false,stim,false,2,578,1,1,0,72805,WMM2,1222285,false,false,1399,image-keyboard-response,11
true,13,1,3,0,false,q,false,false,0.0-2.0-0.49-0.441-3.441,1,1,0,90,false,stim,true,1,455,1,0,2,72805,WMM2,1224283,false,false,1402,image-keyboard-response,12
true,13,2,3,2,true,d,false,false,0.0-2.0-0.49-0.442-3.442,1,1,0,68,false,stim,false,2,948,1,1,0,72805,WMM2,1226754,false,true,1405,image-keyboard-response,13
true,13,2,3,2,true,d,false,false,0.0-2.0-0.49-0.443-3.443,1,1,0,68,false,stim,false,2,415,1,1,0,72805,WMM2,1228703,false,true,1408,image-keyboard-response,14
true,13,1,3,0,false,q,false,false,0.0-2.0-0.49-0.444-3.444,1,1,0,90,false,stim,true,1,599,1,0,2,72805,WMM2,1230825,false,false,1411,image-keyboard-response,15
true,13,0,3,0,true,q,false,true,0.0-2.0-0.49-0.445-3.445,1,1,0,81,false,stim,false,0,874,1,1,1,72805,WMM2,1233242,false,false,1414,image-keyboard-response,16
true,13,2,3,0,false,q,true,false,0.0-2.0-0.49-0.446-3.446,1,1,0,68,false,stim,false,1,1489,1,0,2,72805,WMM2,1236256,false,false,1417,image-keyboard-response,17
true,13,0,3,0,true,q,false,false,0.0-2.0-0.49-0.447-3.447,1,1,0,81,false,stim,false,0,601,1,1,1,72805,WMM2,1238388,false,true,1420,image-keyboard-response,18
true,13,0,3,0,true,q,false,true,0.0-2.0-0.49-0.448-3.448,1,1,0,81,false,stim,false,0,418,1,1,1,72805,WMM2,1240346,false,false,1423,image-keyboard-response,19
true,13,0,3,2,false,d,true,false,0.0-2.0-0.49-0.449-3.449,1,1,0,81,false,stim,false,2,511,1,1,0,72805,WMM2,1242399,false,false,1426,image-keyboard-response,20
true,13,1,3,0,false,q,false,false,0.0-2.0-0.50-0.450-3.450,1,1,0,90,false,stim,true,1,975,1,0,2,72805,WMM2,1244901,false,false,1429,image-keyboard-response,21
true,13,0,3,2,false,d,true,false,0.0-2.0-0.50-0.451-3.451,1,1,0,81,false,stim,false,2,656,1,1,0,72805,WMM2,1247098,false,false,1432,image-keyboard-response,22
true,13,0,3,0,true,q,false,true,0.0-2.0-0.50-0.452-3.452,1,1,0,81,false,stim,false,0,577,1,1,1,72805,WMM2,1249206,false,false,1435,image-keyboard-response,23
true,13,0,3,0,true,q,false,true,0.0-2.0-0.50-0.453-3.453,1,1,0,81,false,stim,false,0,541,1,1,1,72805,WMM2,1251288,false,false,1438,image-keyboard-response,24
true,13,0,3,0,true,q,false,true,0.0-2.0-0.50-0.454-3.454,1,1,0,81,false,stim,false,1,478,1,0,2,72805,WMM2,1253306,false,false,1441,image-keyboard-response,25
true,13,1,3,2,false,d,true,false,0.0-2.0-0.50-0.455-3.455,1,1,0,90,false,stim,false,2,1183,1,1,0,72805,WMM2,1256031,false,false,1444,image-keyboard-response,26
true,13,0,3,0,true,q,false,true,0.0-2.0-0.50-0.456-3.456,1,1,0,81,false,stim,false,0,425,1,1,1,72805,WMM2,1257989,false,false,1447,image-keyboard-response,27
true,13,0,3,2,false,d,true,false,0.0-2.0-0.50-0.457-3.457,1,1,0,81,false,stim,false,2,618,1,1,0,72805,WMM2,1260146,false,false,1450,image-keyboard-response,28
true,13,0,3,0,true,q,false,true,0.0-2.0-0.50-0.458-3.458,1,1,0,81,false,stim,false,1,716,1,0,2,72805,WMM2,1262403,false,false,1453,image-keyboard-response,29
true,13,0,3,0,true,q,false,true,0.0-2.0-0.51-0.459-3.459,1,1,0,81,false,stim,false,0,649,1,1,1,72805,WMM2,1264595,false,false,1456,image-keyboard-response,30
true,13,0,3,0,true,q,false,false,0.0-2.0-0.51-0.460-3.460,1,1,0,81,false,stim,false,1,515,1,0,2,72805,WMM2,1266642,false,true,1459,image-keyboard-response,31
true,13,0,3,0,true,q,false,true,0.0-2.0-0.51-0.461-3.461,1,1,0,81,false,stim,false,1,500,1,0,2,72805,WMM2,1268686,false,false,1462,image-keyboard-response,32
true,13,0,3,0,true,q,false,true,0.0-2.0-0.51-0.462-3.462,1,1,0,81,false,stim,false,1,509,1,0,2,72805,WMM2,1270737,false,false,1465,image-keyboard-response,33
true,13,0,3,0,true,q,false,true,0.0-2.0-0.51-0.463-3.463,1,1,0,81,false,stim,false,0,599,1,1,1,72805,WMM2,1272866,false,false,1468,image-keyboard-response,34
true,13,0,3,0,true,q,false,true,0.0-2.0-0.51-0.464-3.464,1,1,0,81,false,stim,false,0,889,1,1,1,72805,WMM2,1275296,false,false,1471,image-keyboard-response,35
true,13,2,3,2,true,d,false,true,0.0-2.0-0.51-0.465-3.465,1,1,0,68,false,stim,false,2,745,1,1,0,72805,WMM2,1277583,false,false,1474,image-keyboard-response,36
true,13,2,3,2,true,d,false,true,0.0-2.0-0.51-0.466-3.466,1,1,0,68,false,stim,false,2,463,1,1,0,72805,WMM2,1279580,false,false,1477,image-keyboard-response,37
true,13,2,3,2,true,d,false,true,0.0-2.0-0.51-0.467-3.467,1,1,0,68,false,stim,false,2,425,1,1,0,72805,WMM2,1281534,false,false,1480,image-keyboard-response,38
true,13,2,3,2,true,d,false,true,0.0-2.0-0.52-0.468-3.468,1,1,0,68,false,stim,false,2,394,1,1,0,72805,WMM2,1283462,false,false,1483,image-keyboard-response,39
true,13,0,3,0,true,q,false,true,0.0-2.0-0.52-0.469-3.469,1,1,0,81,false,stim,false,0,461,1,1,1,72805,WMM2,1285449,false,false,1486,image-keyboard-response,40
true,13,0,3,0,true,q,false,true,0.0-2.0-0.52-0.470-3.470,1,1,0,81,false,stim,false,1,1376,1,0,2,72805,WMM2,1288364,false,false,1489,image-keyboard-response,41
true,13,0,3,0,true,q,false,true,0.0-2.0-0.52-0.471-3.471,1,1,0,81,false,stim,false,1,424,1,0,2,72805,WMM2,1290311,false,false,1492,image-keyboard-response,42
true,13,2,3,2,true,d,false,false,0.0-2.0-0.52-0.472-3.472,1,1,0,68,false,stim,false,2,685,1,1,0,72805,WMM2,1292532,false,true,1495,image-keyboard-response,43
true,13,2,3,2,true,d,false,true,0.0-2.0-0.52-0.473-3.473,1,1,0,68,false,stim,false,2,427,1,1,0,72805,WMM2,1294495,false,false,1498,image-keyboard-response,44
true,13,0,3,0,true,q,false,true,0.0-2.0-0.52-0.474-3.474,1,1,0,81,false,stim,false,1,664,1,0,2,72805,WMM2,1296698,false,false,1501,image-keyboard-response,45
true,13,0,3,0,true,q,false,true,0.0-2.0-0.52-0.475-3.475,1,1,0,81,false,stim,false,0,538,1,1,1,72805,WMM2,1298766,false,false,1504,image-keyboard-response,46
true,13,0,3,0,true,q,false,true,0.0-2.0-0.52-0.476-3.476,1,1,0,81,false,stim,false,0,640,1,1,1,72805,WMM2,1300947,false,false,1507,image-keyboard-response,47
true,14,0,0,0,true,q,false,true,0.0-2.0-0.53-0.477-3.477,1,1,0,81,true,stim,false,0,2922,1,1,1,72805,WMM2,1427629,false,false,1630,image-keyboard-response,1
true,14,1,0,2,false,d,true,false,0.0-2.0-0.53-0.478-3.478,1,1,0,90,false,stim,false,2,1161,1,1,0,72805,WMM2,1430328,false,false,1633,image-keyboard-response,2
true,14,2,0,0,false,q,true,false,0.0-2.0-0.53-0.479-3.479,1,1,0,68,false,stim,false,0,1235,1,0,2,72805,WMM2,1433104,false,false,1636,image-keyboard-response,3
true,14,0,0,2,false,d,true,false,0.0-2.0-0.53-0.480-3.480,1,1,0,81,false,stim,false,2,510,1,1,0,72805,WMM2,1435137,false,false,1639,image-keyboard-response,4
true,14,1,0,0,false,q,true,false,0.0-2.0-0.53-0.481-3.481,1,1,0,90,false,stim,false,0,999,1,0,2,72805,WMM2,1437667,false,false,1642,image-keyboard-response,5
true,14,2,0,2,true,d,false,true,0.0-2.0-0.53-0.482-3.482,1,1,0,68,false,stim,false,2,726,1,1,0,72805,WMM2,1439933,false,false,1645,image-keyboard-response,6
true,14,1,0,0,false,q,true,false,0.0-2.0-0.53-0.483-3.483,1,1,0,90,false,stim,false,0,1385,1,0,2,72805,WMM2,1442853,false,false,1648,image-keyboard-response,7
true,14,0,0,0,true,q,false,true,0.0-2.0-0.53-0.484-3.484,1,1,0,81,false,stim,false,0,682,1,1,1,72805,WMM2,1445069,false,false,1651,image-keyboard-response,8
true,14,0,0,0,true,q,false,false,0.0-2.0-0.53-0.485-3.485,1,1,0,81,false,stim,false,0,519,1,1,1,72805,WMM2,1447128,false,true,1654,image-keyboard-response,9
true,14,0,0,0,true,q,false,false,0.0-2.0-0.54-0.486-3.486,1,1,0,81,false,stim,false,0,412,1,1,1,72805,WMM2,1449069,false,true,1657,image-keyboard-response,10
true,14,0,0,0,true,q,false,false,0.0-2.0-0.54-0.487-3.487,1,1,0,81,false,stim,false,0,843,1,0,2,72805,WMM2,1451441,false,true,1660,image-keyboard-response,11
true,14,2,0,0,false,q,true,false,0.0-2.0-0.54-0.488-3.488,1,1,0,68,false,stim,false,0,257,1,0,2,72805,WMM2,1453234,false,false,1663,image-keyboard-response,12
true,14,2,0,0,false,q,true,false,0.0-2.0-0.54-0.489-3.489,1,1,0,68,false,stim,false,0,1077,1,1,1,72805,WMM2,1455834,false,false,1666,image-keyboard-response,13
true,14,2,0,2,true,d,false,false,0.0-2.0-0.54-0.490-3.490,1,1,0,68,false,stim,false,2,721,1,1,0,72805,WMM2,1458079,false,true,1669,image-keyboard-response,14
true,14,2,0,2,true,d,false,true,0.0-2.0-0.54-0.491-3.491,1,1,0,68,false,stim,false,2,680,1,1,0,72805,WMM2,1460288,false,false,1672,image-keyboard-response,15
true,14,2,0,2,true,d,false,true,0.0-2.0-0.54-0.492-3.492,1,1,0,68,false,stim,false,2,548,1,1,0,72805,WMM2,1462374,false,false,1675,image-keyboard-response,16
true,14,1,0,0,false,q,true,false,0.0-2.0-0.54-0.493-3.493,1,1,0,90,false,stim,false,0,1371,1,1,1,72805,WMM2,1465274,false,false,1678,image-keyboard-response,17
true,14,1,0,0,false,q,true,false,0.0-2.0-0.54-0.494-3.494,1,1,0,90,false,stim,false,0,837,1,0,2,72805,WMM2,1467655,false,false,1681,image-keyboard-response,18
true,14,2,0,2,true,d,false,false,0.0-2.0-0.55-0.495-3.495,1,1,0,68,false,stim,false,2,595,1,1,0,72805,WMM2,1469782,false,true,1684,image-keyboard-response,19
true,14,0,0,0,true,q,false,true,0.0-2.0-0.55-0.496-3.496,1,1,0,81,false,stim,false,0,606,1,1,1,72805,WMM2,1471914,false,false,1687,image-keyboard-response,20
true,14,0,0,0,true,q,false,true,0.0-2.0-0.55-0.497-3.497,1,1,0,81,false,stim,false,0,444,1,1,1,72805,WMM2,1473891,false,false,1690,image-keyboard-response,21
true,14,2,0,2,true,d,false,true,0.0-2.0-0.55-0.498-3.498,1,1,0,68,false,stim,false,2,786,1,1,0,72805,WMM2,1476213,false,false,1693,image-keyboard-response,22
true,14,2,0,2,true,d,false,true,0.0-2.0-0.55-0.499-3.499,1,1,0,68,false,stim,false,2,695,1,1,0,72805,WMM2,1478443,false,false,1696,image-keyboard-response,23
true,14,0,0,0,true,q,false,true,0.0-2.0-0.55-0.500-3.500,1,1,0,81,false,stim,false,0,724,1,0,2,72805,WMM2,1480681,false,false,1699,image-keyboard-response,24
true,14,0,0,0,true,q,false,true,0.0-2.0-0.55-0.501-3.501,1,1,0,81,false,stim,false,0,536,1,1,1,72805,WMM2,1482754,false,false,1702,image-keyboard-response,25
true,14,0,0,0,true,q,false,true,0.0-2.0-0.55-0.502-3.502,1,1,0,81,false,stim,false,0,638,1,0,2,72805,WMM2,1484926,false,false,1705,image-keyboard-response,26
true,14,0,0,0,true,q,false,true,0.0-2.0-0.55-0.503-3.503,1,1,0,81,false,stim,false,0,800,1,0,2,72805,WMM2,1487267,false,false,1708,image-keyboard-response,27
true,14,0,0,0,true,q,false,true,0.0-2.0-0.56-0.504-3.504,1,1,0,81,false,stim,false,0,617,1,1,1,72805,WMM2,1489423,false,false,1711,image-keyboard-response,28
true,14,0,0,0,true,q,false,true,0.0-2.0-0.56-0.505-3.505,1,1,0,81,false,stim,false,0,1015,1,0,2,72805,WMM2,1491970,false,false,1714,image-keyboard-response,29
true,14,0,0,0,true,q,false,true,0.0-2.0-0.56-0.506-3.506,1,1,0,81,false,stim,false,0,978,1,1,1,72805,WMM2,1494474,false,false,1717,image-keyboard-response,30
true,14,0,0,0,true,q,false,true,0.0-2.0-0.56-0.507-3.507,1,1,0,81,false,stim,false,0,688,1,0,2,72805,WMM2,1496697,false,false,1720,image-keyboard-response,31
true,14,2,0,2,true,d,false,true,0.0-2.0-0.56-0.508-3.508,1,1,0,68,false,stim,false,2,689,1,1,0,72805,WMM2,1498917,false,false,1723,image-keyboard-response,32
true,14,0,0,0,true,q,false,true,0.0-2.0-0.56-0.509-3.509,1,1,0,81,false,stim,false,0,1598,1,0,2,72805,WMM2,1502047,false,false,1726,image-keyboard-response,33
true,14,0,0,0,true,q,false,true,0.0-2.0-0.56-0.510-3.510,1,1,0,81,false,stim,false,0,590,1,1,1,72805,WMM2,1504178,false,false,1729,image-keyboard-response,34
true,14,2,0,2,true,d,false,true,0.0-2.0-0.56-0.511-3.511,1,1,0,68,false,stim,false,2,622,1,1,0,72805,WMM2,1506329,false,false,1732,image-keyboard-response,35
true,14,2,0,2,true,d,false,false,0.0-2.0-0.56-0.512-3.512,1,1,0,68,false,stim,false,2,470,1,1,0,72805,WMM2,1508338,false,true,1735,image-keyboard-response,36
true,15,0,4,0,true,q,false,true,0.0-2.0-0.57-0.513-3.513,1,1,0,81,true,stim,false,0,631,1,1,1,72805,WMM2,1510498,false,false,1738,image-keyboard-response,1
true,15,2,4,2,true,d,false,false,0.0-2.0-0.57-0.514-3.514,1,1,0,68,false,stim,false,2,584,1,1,0,72805,WMM2,1512622,false,true,1741,image-keyboard-response,2
true,15,0,4,0,true,q,false,true,0.0-2.0-0.57-0.515-3.515,1,1,0,81,false,stim,false,0,606,1,0,2,72805,WMM2,1514764,false,false,1744,image-keyboard-response,3
true,15,1,4,2,false,d,true,false,0.0-2.0-0.57-0.516-3.516,1,1,0,90,false,stim,false,2,443,1,1,0,72805,WMM2,1516741,false,false,1747,image-keyboard-response,4
true,15,0,4,0,true,q,false,true,0.0-2.0-0.57-0.517-3.517,1,1,0,81,false,stim,false,0,460,1,0,2,72805,WMM2,1518738,false,false,1750,image-keyboard-response,5
true,15,0,4,0,true,q,false,true,0.0-2.0-0.57-0.518-3.518,1,1,0,81,false,stim,false,0,448,1,1,1,72805,WMM2,1520726,false,false,1753,image-keyboard-response,6
true,15,0,4,0,true,q,false,true,0.0-2.0-0.57-0.519-3.519,1,1,0,81,false,stim,false,0,347,1,0,2,72805,WMM2,1522604,false,false,1756,image-keyboard-response,7
true,15,0,4,0,true,q,false,true,0.0-2.0-0.57-0.520-3.520,1,1,0,81,false,stim,false,0,331,1,1,1,72805,WMM2,1524467,false,false,1759,image-keyboard-response,8
true,15,0,4,2,false,d,true,false,0.0-2.0-0.57-0.521-3.521,1,1,0,81,false,stim,false,2,407,1,1,0,72805,WMM2,1526394,false,false,1762,image-keyboard-response,9
true,15,2,4,2,true,d,false,false,0.0-2.0-0.58-0.522-3.522,1,1,0,68,false,stim,false,2,669,1,1,0,72805,WMM2,1528587,false,true,1765,image-keyboard-response,10
true,15,0,4,0,true,q,false,true,0.0-2.0-0.58-0.523-3.523,1,1,0,81,false,stim,false,0,711,1,0,2,72805,WMM2,1530828,false,false,1768,image-keyboard-response,11
true,15,0,4,0,true,q,false,true,0.0-2.0-0.58-0.524-3.524,1,1,0,81,false,stim,false,0,454,1,0,2,72805,WMM2,1532812,false,false,1771,image-keyboard-response,12
true,15,0,4,0,true,q,false,true,0.0-2.0-0.58-0.525-3.525,1,1,0,81,false,stim,false,0,375,1,0,2,72805,WMM2,1534714,false,false,1774,image-keyboard-response,13
true,15,0,4,0,true,q,false,true,0.0-2.0-0.58-0.526-3.526,1,1,0,81,false,stim,false,0,498,1,1,1,72805,WMM2,1536736,false,false,1777,image-keyboard-response,14
true,15,0,4,0,true,q,false,false,0.0-2.0-0.58-0.527-3.527,1,1,0,81,false,stim,false,0,341,1,1,1,72805,WMM2,1538618,false,true,1780,image-keyboard-response,15
true,15,0,4,0,true,q,false,false,0.0-2.0-0.58-0.528-3.528,1,1,0,81,false,stim,false,0,368,1,1,1,72805,WMM2,1540527,false,true,1783,image-keyboard-response,16
true,15,2,4,2,true,d,false,true,0.0-2.0-0.58-0.529-3.529,1,1,0,68,false,stim,false,2,1939,1,1,0,72805,WMM2,1543998,false,false,1786,image-keyboard-response,17
true,15,2,4,2,true,d,false,true,0.0-2.0-0.58-0.530-3.530,1,1,0,68,false,stim,false,2,518,1,1,0,72805,WMM2,1546047,false,false,1789,image-keyboard-response,18
true,15,0,4,0,true,q,false,true,0.0-2.0-0.59-0.531-3.531,1,1,0,81,false,stim,false,0,1033,1,0,2,72805,WMM2,1548621,false,false,1792,image-keyboard-response,19
true,15,1,4,0,false,q,true,true,0.0-2.0-0.59-0.532-3.532,1,1,0,90,false,stim,false,0,554,1,1,1,72805,WMM2,1550703,false,true,1795,image-keyboard-response,20
true,15,2,4,2,true,d,false,true,0.0-2.0-0.59-0.533-3.533,1,1,0,68,false,stim,false,2,570,1,1,0,72805,WMM2,1552806,false,false,1798,image-keyboard-response,21
true,15,1,4,0,false,q,true,false,0.0-2.0-0.59-0.534-3.534,1,1,0,90,false,stim,false,0,636,1,1,1,72805,WMM2,1554992,false,false,1801,image-keyboard-response,22
true,15,2,4,2,true,d,false,true,0.0-2.0-0.59-0.535-3.535,1,1,0,68,false,stim,false,2,521,1,1,0,72805,WMM2,1557048,false,false,1804,image-keyboard-response,23
true,15,0,4,0,true,q,false,true,0.0-2.0-0.59-0.536-3.536,1,1,0,81,false,stim,false,0,648,1,0,2,72805,WMM2,1559226,false,false,1807,image-keyboard-response,24
true,15,1,4,0,false,q,true,false,0.0-2.0-0.59-0.537-3.537,1,1,0,90,false,stim,false,0,615,1,1,1,72805,WMM2,1561373,false,false,1810,image-keyboard-response,25
true,15,0,4,0,true,q,false,true,0.0-2.0-0.59-0.538-3.538,1,1,0,81,false,stim,false,0,428,1,0,2,72805,WMM2,1563345,false,false,1813,image-keyboard-response,26
true,15,2,4,2,true,d,false,true,0.0-2.0-0.59-0.539-3.539,1,1,0,68,false,stim,false,2,554,1,1,0,72805,WMM2,1565433,false,false,1816,image-keyboard-response,27
true,15,0,4,0,true,q,false,true,0.0-2.0-0.60-0.540-3.540,1,1,0,81,false,stim,false,0,816,1,0,2,72805,WMM2,1567794,false,false,1819,image-keyboard-response,28
true,15,0,4,0,true,q,false,true,0.0-2.0-0.60-0.541-3.541,1,1,0,81,false,stim,false,0,531,1,1,1,72805,WMM2,1569871,false,false,1822,image-keyboard-response,29
true,15,0,4,0,true,q,false,true,0.0-2.0-0.60-0.542-3.542,1,1,0,81,false,stim,false,0,873,1,0,2,72805,WMM2,1572291,false,false,1825,image-keyboard-response,30
true,15,2,4,2,true,d,false,true,0.0-2.0-0.60-0.543-3.543,1,1,0,68,false,stim,false,2,675,1,1,0,72805,WMM2,1574513,false,false,1828,image-keyboard-response,31
true,15,2,4,2,true,d,false,true,0.0-2.0-0.60-0.544-3.544,1,1,0,68,false,stim,false,2,452,1,1,0,72805,WMM2,1576510,false,false,1831,image-keyboard-response,32
true,15,0,4,0,true,q,false,true,0.0-2.0-0.60-0.545-3.545,1,1,0,81,false,stim,false,0,699,1,1,1,72805,WMM2,1578757,false,false,1834,image-keyboard-response,33
true,15,0,4,0,true,q,false,true,0.0-2.0-0.60-0.546-3.546,1,1,0,81,false,stim,false,0,740,1,0,2,72805,WMM2,1581038,false,false,1837,image-keyboard-response,34
true,15,2,4,2,true,d,false,true,0.0-2.0-0.60-0.547-3.547,1,1,0,68,false,stim,false,2,578,1,1,0,72805,WMM2,1583156,false,false,1840,image-keyboard-response,35
true,15,0,4,0,true,q,false,true,0.0-2.0-0.60-0.548-3.548,1,1,0,81,false,stim,false,0,630,1,1,1,72805,WMM2,1585327,false,false,1843,image-keyboard-response,36
true,15,0,4,0,true,q,false,true,0.0-2.0-0.61-0.549-3.549,1,1,0,81,false,stim,false,0,511,1,1,1,72805,WMM2,1587368,false,false,1846,image-keyboard-response,37
true,15,0,4,0,true,q,false,true,0.0-2.0-0.61-0.550-3.550,1,1,0,81,false,stim,false,0,378,1,1,1,72805,WMM2,1589273,false,false,1849,image-keyboard-response,38
true,15,0,4,0,true,q,false,true,0.0-2.0-0.61-0.551-3.551,1,1,0,81,false,stim,false,0,907,1,1,1,72805,WMM2,1591703,false,false,1852,image-keyboard-response,39
true,15,0,4,0,true,q,false,true,0.0-2.0-0.61-0.552-3.552,1,1,0,81,false,stim,false,0,542,1,0,2,72805,WMM2,1593779,false,false,1855,image-keyboard-response,40
true,15,2,4,2,true,d,false,true,0.0-2.0-0.61-0.553-3.553,1,1,0,68,false,stim,false,2,625,1,1,0,72805,WMM2,1595942,false,false,1858,image-keyboard-response,41
true,15,2,4,2,true,d,false,true,0.0-2.0-0.61-0.554-3.554,1,1,0,68,false,stim,false,2,536,1,1,0,72805,WMM2,1598014,false,false,1861,image-keyboard-response,42
true,15,2,4,2,true,d,false,true,0.0-2.0-0.61-0.555-3.555,1,1,0,68,false,stim,false,2,425,1,1,0,72805,WMM2,1599983,false,false,1864,image-keyboard-response,43
true,16,0,3,2,false,d,false,false,0.0-2.0-0.61-0.556-3.556,1,1,0,81,true,stim,true,0,641,1,0,2,72805,WMM2,1602158,false,false,1867,image-keyboard-response,1
true,16,0,3,2,false,d,false,false,0.0-2.0-0.61-0.557-3.557,1,1,0,81,false,stim,true,0,558,1,0,2,72805,WMM2,1604255,false,false,1870,image-keyboard-response,2
true,16,0,3,0,true,q,false,true,0.0-2.0-0.62-0.558-3.558,1,1,0,81,false,stim,false,0,669,1,1,1,72805,WMM2,1606467,false,false,1873,image-keyboard-response,3
true,16,0,3,0,true,q,false,true,0.0-2.0-0.62-0.559-3.559,1,1,0,81,false,stim,false,0,501,1,1,1,72805,WMM2,1608499,false,false,1876,image-keyboard-response,4
true,16,2,3,2,true,d,false,false,0.0-2.0-0.62-0.560-3.560,1,1,0,68,false,stim,false,2,631,1,1,0,72805,WMM2,1610656,false,true,1879,image-keyboard-response,5
true,16,2,3,2,true,d,false,true,0.0-2.0-0.62-0.561-3.561,1,1,0,68,false,stim,false,0,730,1,0,2,72805,WMM2,1612917,false,false,1882,image-keyboard-response,6
true,16,2,3,2,true,d,false,true,0.0-2.0-0.62-0.562-3.562,1,1,0,68,false,stim,false,0,582,1,0,2,72805,WMM2,1615030,false,false,1885,image-keyboard-response,7
true,16,1,3,2,false,d,true,false,0.0-2.0-0.62-0.563-3.563,1,1,0,90,false,stim,false,2,553,1,1,0,72805,WMM2,1617123,false,false,1888,image-keyboard-response,8
true,16,0,3,0,true,q,false,true,0.0-2.0-0.62-0.564-3.564,1,1,0,81,false,stim,false,0,711,1,1,1,72805,WMM2,1619369,false,false,1891,image-keyboard-response,9
true,16,2,3,2,true,d,false,true,0.0-2.0-0.62-0.565-3.565,1,1,0,68,false,stim,false,0,619,1,0,2,72805,WMM2,1621528,false,false,1894,image-keyboard-response,10
true,16,2,3,2,true,d,false,false,0.0-2.0-0.62-0.566-3.566,1,1,0,68,false,stim,false,2,605,1,1,0,72805,WMM2,1623668,false,true,1897,image-keyboard-response,11
true,16,2,3,2,true,d,false,false,0.0-2.0-0.63-0.567-3.567,1,1,0,68,false,stim,false,0,701,1,0,2,72805,WMM2,1625909,false,true,1900,image-keyboard-response,12
true,16,2,3,2,true,d,false,true,0.0-2.0-0.63-0.568-3.568,1,1,0,68,false,stim,false,0,548,1,0,2,72805,WMM2,1627996,false,false,1903,image-keyboard-response,13
true,16,0,3,0,true,q,false,true,0.0-2.0-0.63-0.569-3.569,1,1,0,81,false,stim,false,0,601,1,1,1,72805,WMM2,1630138,false,false,1906,image-keyboard-response,14
true,16,0,3,2,false,d,true,false,0.0-2.0-0.63-0.570-3.570,1,1,0,81,false,stim,false,2,702,1,1,0,72805,WMM2,1632380,false,false,1909,image-keyboard-response,15
true,16,0,3,0,true,q,false,true,0.0-2.0-0.63-0.571-3.571,1,1,0,81,false,stim,false,0,575,1,1,1,72805,WMM2,1634493,false,false,1912,image-keyboard-response,16
true,16,0,3,0,true,q,false,true,0.0-2.0-0.63-0.572-3.572,1,1,0,81,false,stim,false,0,825,1,1,1,72805,WMM2,1636843,false,false,1915,image-keyboard-response,17
true,16,2,3,2,true,d,false,true,0.0-2.0-0.63-0.573-3.573,1,1,0,68,false,stim,false,2,930,1,1,0,72805,WMM2,1639308,false,false,1918,image-keyboard-response,18
true,16,2,3,2,true,d,false,true,0.0-2.0-0.63-0.574-3.574,1,1,0,68,false,stim,false,0,480,1,0,2,72805,WMM2,1641317,false,false,1921,image-keyboard-response,19
true,16,2,3,2,true,d,false,false,0.0-2.0-0.63-0.575-3.575,1,1,0,68,false,stim,false,2,502,1,1,0,72805,WMM2,1643358,false,true,1924,image-keyboard-response,20
true,16,2,3,2,true,d,false,true,0.0-2.0-0.64-0.576-3.576,1,1,0,68,false,stim,false,0,642,1,1,2,72805,WMM2,1645541,false,false,1927,image-keyboard-response,21
true,16,0,3,0,true,q,false,true,0.0-2.0-0.64-0.577-3.577,1,1,0,81,false,stim,false,0,620,1,1,1,72805,WMM2,1647697,false,false,1930,image-keyboard-response,22
true,16,2,3,2,true,d,false,true,0.0-2.0-0.64-0.578-3.578,1,1,0,68,false,stim,false,2,547,1,0,0,72805,WMM2,1649785,false,false,1933,image-keyboard-response,23
true,16,0,3,0,true,q,false,true,0.0-2.0-0.64-0.579-3.579,1,1,0,81,false,stim,false,0,932,1,1,1,72805,WMM2,1652250,false,false,1936,image-keyboard-response,24
true,16,2,3,2,true,d,false,true,0.0-2.0-0.64-0.580-3.580,1,1,0,68,false,stim,false,2,659,1,0,0,72805,WMM2,1654438,false,false,1939,image-keyboard-response,25
true,16,0,3,0,true,q,false,true,0.0-2.0-0.64-0.581-3.581,1,1,0,81,false,stim,false,0,631,1,1,1,72805,WMM2,1656599,false,false,1942,image-keyboard-response,26
true,16,0,3,2,false,d,false,false,0.0-2.0-0.64-0.582-3.582,1,1,0,81,false,stim,true,0,877,1,1,2,72805,WMM2,1659005,false,false,1945,image-keyboard-response,27
true,16,2,3,2,true,d,false,true,0.0-2.0-0.64-0.583-3.583,1,1,0,68,false,stim,false,0,454,1,1,2,72805,WMM2,1661003,false,false,1948,image-keyboard-response,28
true,16,2,3,2,true,d,false,true,0.0-2.0-0.64-0.584-3.584,1,1,0,68,false,stim,false,2,546,1,0,0,72805,WMM2,1663076,false,false,1951,image-keyboard-response,29
true,16,0,3,0,true,q,false,true,0.0-2.0-0.65-0.585-3.585,1,1,0,81,false,stim,false,0,982,1,1,1,72805,WMM2,1665591,false,false,1954,image-keyboard-response,30
true,17,2,3,2,true,d,false,true,0.0-2.0-0.65-0.586-3.586,0,1,1,68,true,stim,false,2,605,1,1,2,72805,WMM2,1667733,false,false,1957,image-keyboard-response,1
true,17,2,3,0,false,q,false,false,0.0-2.0-0.65-0.587-3.587,0,1,1,68,false,stim,true,2,1230,1,0,0,72805,WMM2,1670498,false,false,1960,image-keyboard-response,2
true,17,0,3,0,true,q,false,true,0.0-2.0-0.65-0.588-3.588,0,1,1,81,false,stim,false,0,765,1,1,1,72805,WMM2,1672804,false,false,1963,image-keyboard-response,3
true,17,0,3,0,true,q,false,true,0.0-2.0-0.65-0.589-3.589,0,1,1,81,false,stim,false,0,504,1,1,1,72805,WMM2,1674841,false,false,1966,image-keyboard-response,4
true,17,2,3,2,true,d,false,true,0.0-2.0-0.65-0.590-3.590,0,1,1,68,false,stim,false,2,555,1,1,2,72805,WMM2,1676934,false,false,1969,image-keyboard-response,5
true,17,2,3,0,false,q,false,false,0.0-2.0-0.65-0.591-3.591,0,1,1,68,false,stim,true,2,981,1,0,0,72805,WMM2,1679439,false,false,1972,image-keyboard-response,6
true,17,2,3,2,true,d,false,true,0.0-2.0-0.65-0.592-3.592,0,1,1,68,false,stim,false,2,553,1,1,2,72805,WMM2,1681531,false,false,1975,image-keyboard-response,7
true,17,1,3,0,false,q,true,false,0.0-2.0-0.65-0.593-3.593,0,1,1,90,false,stim,false,2,675,1,0,0,72805,WMM2,1683733,false,false,1978,image-keyboard-response,8
true,17,0,3,0,true,q,false,true,0.0-2.0-0.66-0.594-3.594,0,1,1,81,false,stim,false,2,431,1,0,0,72805,WMM2,1685690,false,false,1981,image-keyboard-response,9
true,17,0,3,0,true,q,false,true,0.0-2.0-0.66-0.595-3.595,0,1,1,81,false,stim,false,2,435,1,0,0,72805,WMM2,1687653,false,false,1984,image-keyboard-response,10
true,17,0,3,0,true,q,false,false,0.0-2.0-0.66-0.596-3.596,0,1,1,81,false,stim,false,0,482,1,1,1,72805,WMM2,1689660,false,true,1987,image-keyboard-response,11
true,17,2,3,2,true,d,false,true,0.0-2.0-0.66-0.597-3.597,0,1,1,68,false,stim,false,2,780,1,1,2,72805,WMM2,1691978,false,false,1990,image-keyboard-response,12
true,17,2,3,2,true,d,false,false,0.0-2.0-0.66-0.598-3.598,0,1,1,68,false,stim,false,2,566,1,1,2,72805,WMM2,1694084,false,true,1993,image-keyboard-response,13
true,17,1,3,0,false,q,true,false,0.0-2.0-0.66-0.599-3.599,0,1,1,90,false,stim,false,0,1329,1,1,1,72805,WMM2,1696958,false,false,1996,image-keyboard-response,14
true,17,0,3,0,true,q,false,true,0.0-2.0-0.66-0.600-3.600,0,1,1,81,false,stim,false,0,427,1,1,1,72805,WMM2,1698916,false,false,1999,image-keyboard-response,15
true,17,2,3,2,true,d,false,true,0.0-2.0-0.66-0.601-3.601,0,1,1,68,false,stim,false,2,833,1,1,2,72805,WMM2,1701292,false,false,2002,image-keyboard-response,16
true,17,0,3,0,true,q,false,true,0.0-2.0-0.66-0.602-3.602,0,1,1,81,false,stim,false,2,635,1,0,0,72805,WMM2,1703463,false,false,2005,image-keyboard-response,17
true,17,0,3,0,true,q,false,true,0.0-2.0-0.67-0.603-3.603,0,1,1,81,false,stim,false,0,901,1,1,1,72805,WMM2,1705889,false,false,2008,image-keyboard-response,18
true,17,2,3,2,true,d,false,false,0.0-2.0-0.67-0.604-3.604,0,1,1,68,false,stim,false,2,842,1,1,2,72805,WMM2,1708271,false,true,2011,image-keyboard-response,19
true,17,0,3,0,true,q,false,true,0.0-2.0-0.67-0.605-3.605,0,1,1,81,false,stim,false,0,704,1,1,1,72805,WMM2,1710503,false,false,2014,image-keyboard-response,20
true,17,0,3,0,true,q,false,true,0.0-2.0-0.67-0.606-3.606,0,1,1,81,false,stim,false,2,875,1,1,0,72805,WMM2,1712913,false,false,2017,image-keyboard-response,21
true,17,0,3,0,true,q,false,false,0.0-2.0-0.67-0.607-3.607,0,1,1,81,false,stim,false,2,528,1,1,0,72805,WMM2,1714965,false,true,2020,image-keyboard-response,22
true,17,2,3,2,true,d,false,true,0.0-2.0-0.67-0.608-3.608,0,1,1,68,false,stim,false,2,615,1,1,2,72805,WMM2,1717113,false,false,2023,image-keyboard-response,23
true,17,2,3,2,true,d,false,true,0.0-2.0-0.67-0.609-3.609,0,1,1,68,false,stim,false,2,436,1,1,2,72805,WMM2,1719075,false,false,2026,image-keyboard-response,24
true,17,0,3,0,true,q,false,false,0.0-2.0-0.67-0.610-3.610,0,1,1,81,false,stim,false,2,549,1,1,0,72805,WMM2,1721168,false,true,2029,image-keyboard-response,25
true,17,0,3,0,true,q,false,true,0.0-2.0-0.67-0.611-3.611,0,1,1,81,false,stim,false,0,520,1,0,1,72805,WMM2,1723219,false,false,2032,image-keyboard-response,26
true,17,1,3,0,false,q,true,false,0.0-2.0-0.68-0.612-3.612,0,1,1,90,false,stim,false,2,405,1,1,0,72805,WMM2,1725163,false,false,2035,image-keyboard-response,27
true,17,2,3,2,true,d,false,true,0.0-2.0-0.68-0.613-3.613,0,1,1,68,false,stim,false,2,784,1,1,2,72805,WMM2,1727483,false,false,2038,image-keyboard-response,28
true,17,2,3,0,false,q,false,false,0.0-2.0-0.68-0.614-3.614,0,1,1,68,false,stim,true,2,402,1,1,0,72805,WMM2,1729421,false,false,2041,image-keyboard-response,29
true,17,0,3,0,true,q,false,true,0.0-2.0-0.68-0.615-3.615,0,1,1,81,false,stim,false,0,569,1,0,1,72805,WMM2,1731528,false,false,2044,image-keyboard-response,30
true,18,0,3,0,true,q,false,true,0.0-2.0-0.68-0.616-3.616,1,0,1,81,true,stim,false,0,507,1,1,0,72805,WMM2,1733565,false,false,2047,image-keyboard-response,1
true,18,2,3,2,true,d,false,false,0.0-2.0-0.68-0.617-3.617,1,0,1,68,false,stim,false,2,525,1,1,2,72805,WMM2,1735618,false,true,2050,image-keyboard-response,2
true,18,0,3,1,false,z,false,false,0.0-2.0-0.68-0.618-3.618,1,0,1,81,false,stim,true,0,536,1,0,1,72805,WMM2,1737694,false,false,2053,image-keyboard-response,3
true,18,2,3,2,true,d,false,false,0.0-2.0-0.68-0.619-3.619,1,0,1,68,false,stim,false,2,643,1,1,2,72805,WMM2,1739881,false,true,2056,image-keyboard-response,4
true,18,0,3,1,false,z,false,false,0.0-2.0-0.68-0.620-3.620,1,0,1,81,false,stim,true,0,545,1,0,1,72805,WMM2,1741964,false,false,2059,image-keyboard-response,5
true,18,2,3,1,false,z,true,false,0.0-2.0-0.69-0.621-3.621,1,0,1,68,false,stim,false,0,747,1,0,1,72805,WMM2,1744245,false,false,2062,image-keyboard-response,6
true,18,0,3,2,false,d,true,false,0.0-2.0-0.69-0.622-3.622,1,0,1,81,false,stim,false,2,575,1,1,2,72805,WMM2,1746362,false,false,2065,image-keyboard-response,7
true,18,1,3,1,true,z,false,true,0.0-2.0-0.69-0.623-3.623,1,0,1,90,false,stim,false,0,735,1,0,1,72805,WMM2,1748623,false,false,2068,image-keyboard-response,8
true,18,0,3,2,false,d,true,false,0.0-2.0-0.69-0.624-3.624,1,0,1,81,false,stim,false,2,866,1,1,2,72805,WMM2,1751025,false,false,2071,image-keyboard-response,9
true,18,0,3,0,true,q,false,true,0.0-2.0-0.69-0.625-3.625,1,0,1,81,false,stim,false,0,807,1,1,0,72805,WMM2,1753366,false,false,2074,image-keyboard-response,10
true,18,1,3,1,true,z,false,true,0.0-2.0-0.69-0.626-3.626,1,0,1,90,false,stim,false,0,683,1,0,1,72805,WMM2,1755582,false,false,2077,image-keyboard-response,11
true,18,0,3,0,true,q,false,false,0.0-2.0-0.69-0.627-3.627,1,0,1,81,false,stim,false,0,709,1,1,0,72805,WMM2,1757819,false,true,2080,image-keyboard-response,12
true,18,0,3,0,true,q,false,false,0.0-2.0-0.69-0.628-3.628,1,0,1,81,false,stim,false,0,488,1,1,0,72805,WMM2,1759836,false,true,2083,image-keyboard-response,13
true,18,0,3,2,false,d,true,false,0.0-2.0-0.69-0.629-3.629,1,0,1,81,false,stim,false,2,888,1,1,2,72805,WMM2,1762248,false,false,2086,image-keyboard-response,14
true,18,2,3,2,true,d,false,true,0.0-2.0-0.70-0.630-3.630,1,0,1,68,false,stim,false,2,576,1,1,2,72805,WMM2,1764355,false,false,2089,image-keyboard-response,15
true,18,2,3,2,true,d,false,true,0.0-2.0-0.70-0.631-3.631,1,0,1,68,false,stim,false,2,568,1,1,2,72805,WMM2,1766466,false,false,2092,image-keyboard-response,16
true,18,2,3,0,false,q,true,true,0.0-2.0-0.70-0.632-3.632,1,0,1,68,false,stim,false,0,669,1,1,0,72805,WMM2,1768678,false,true,2095,image-keyboard-response,17
true,18,1,3,1,true,z,false,true,0.0-2.0-0.70-0.633-3.633,1,0,1,90,false,stim,false,0,721,1,0,1,72805,WMM2,1770929,false,false,2098,image-keyboard-response,18
true,18,1,3,1,true,z,false,true,0.0-2.0-0.70-0.634-3.634,1,0,1,90,false,stim,false,0,477,1,0,1,72805,WMM2,1772953,false,false,2101,image-keyboard-response,19
true,18,2,3,2,true,d,false,false,0.0-2.0-0.70-0.635-3.635,1,0,1,68,false,stim,false,2,1439,1,1,2,72805,WMM2,1775917,false,true,2104,image-keyboard-response,20
true,18,2,3,0,false,q,true,false,0.0-2.0-0.70-0.636-3.636,1,0,1,68,false,stim,false,0,694,1,1,0,72805,WMM2,1778142,false,false,2107,image-keyboard-response,21
true,18,1,3,1,true,z,false,true,0.0-2.0-0.70-0.637-3.637,1,0,1,90,false,stim,false,0,567,1,0,1,72805,WMM2,1780244,false,false,2110,image-keyboard-response,22
