answered,blockNum,choice,condition,corResp,correct,correct_response,explo,fb,internal_node_id,isStable_1,isStable_2,isStable_3,key_press,newBlock,part,persev,persevResp,rt,sessNum,stableAS,stimulus,subject,task,time_elapsed,training,trap,trial_index,trial_type,trialsInBlock
true,1,2,0,0,false,q,true,false,0.0-2.0-0.0-0.0-3.0,0,0,0,68,true,stim,false,-1,667,2,0,1,72805,WMM1,83799,false,false,88,image-keyboard-response,1
true,1,2,0,1,false,z,true,false,0.0-2.0-0.0-0.1-3.1,0,0,0,68,false,stim,false,-1,553,2,0,2,72805,WMM1,85876,false,false,91,image-keyboard-response,2
true,1,0,0,1,false,z,true,false,0.0-2.0-0.0-0.2-3.2,0,0,0,81,false,stim,false,-1,577,2,0,2,72805,WMM1,87979,false,false,94,image-keyboard-response,3
true,1,2,0,0,false,q,true,false,0.0-2.0-0.0-0.3-3.3,0,0,0,68,false,stim,false,-1,1007,2,0,0,72805,WMM1,90510,false,false,97,image-keyboard-response,4
true,1,1,0,1,true,z,false,true,0.0-2.0-0.0-0.4-3.4,0,0,0,90,false,stim,false,-1,798,2,0,2,72805,WMM1,92841,false,false,100,image-keyboard-response,5
true,1,2,0,0,false,q,true,false,0.0-2.0-0.0-0.5-3.5,0,0,0,68,false,stim,false,-1,580,2,0,1,72805,WMM1,94963,false,false,103,image-keyboard-response,6
true,1,0,0,0,true,q,false,true,0.0-2.0-0.0-0.6-3.6,0,0,0,81,false,stim,false,-1,729,2,0,1,72805,WMM1,97231,false,false,106,image-keyboard-response,7
true,1,0,0,0,true,q,false,true,0.0-2.0-0.0-0.7-3.7,0,0,0,81,false,stim,false,-1,1213,2,0,0,72805,WMM1,99975,false,false,109,image-keyboard-response,8
true,1,0,0,0,true,q,false,true,0.0-2.0-0.0-0.8-3.8,0,0,0,81,false,stim,false,-1,465,2,0,0,72805,WMM1,101968,false,false,112,image-keyboard-response,9
true,1,0,0,0,true,q,false,true,0.0-2.0-0.1-0.9-3.9,0,0,0,81,false,stim,false,-1,607,2,0,1,72805,WMM1,104105,false,false,115,image-keyboard-response,10
true,1,0,0,0,true,q,false,true,0.0-2.0-0.1-0.10-3.10,0,0,0,81,false,stim,false,-1,565,2,0,0,72805,WMM1,106208,false,false,118,image-keyboard-response,11
true,1,0,0,0,true,q,false,true,0.0-2.0-0.1-0.11-3.11,0,0,0,81,false,stim,false,-1,642,2,0,1,72805,WMM1,108384,false,false,121,image-keyboard-response,12
true,1,1,0,1,true,z,false,true,0.0-2.0-0.1-0.12-3.12,0,0,0,90,false,stim,false,-1,470,2,0,2,72805,WMM1,110392,false,false,124,image-keyboard-response,13
true,1,1,0,1,true,z,false,true,0.0-2.0-0.1-0.13-3.13,0,0,0,90,false,stim,false,-1,412,2,0,2,72805,WMM1,112335,false,false,127,image-keyboard-response,14
true,1,0,0,0,true,q,false,true,0.0-2.0-0.1-0.14-3.14,0,0,0,81,false,stim,false,-1,1592,2,0,1,72805,WMM1,115454,false,false,130,image-keyboard-response,15
true,1,0,0,0,true,q,false,true,0.0-2.0-0.1-0.15-3.15,0,0,0,81,false,stim,false,-1,1251,2,0,0,72805,WMM1,118244,false,false,133,image-keyboard-response,16
true,1,0,0,0,true,q,false,true,0.0-2.0-0.1-0.16-3.16,0,0,0,81,false,stim,false,-1,404,2,0,0,72805,WMM1,120176,false,false,136,image-keyboard-response,17
true,1,1,0,1,true,z,false,true,0.0-2.0-0.1-0.17-3.17,0,0,0,90,false,stim,false,-1,631,2,0,2,72805,WMM1,122343,false,false,139,image-keyboard-response,18
true,1,1,0,1,true,z,false,true,0.0-2.0-0.2-0.18-3.18,0,0,0,90,false,stim,false,-1,1839,2,0,2,72805,WMM1,125711,false,false,142,image-keyboard-response,19
true,1,1,0,1,true,z,false,true,0.0-2.0-0.2-0.19-3.19,0,0,0,90,false,stim,false,-1,617,2,0,2,72805,WMM1,127868,false,false,145,image-keyboard-response,20
true,1,0,0,0,true,q,false,true,0.0-2.0-0.2-0.20-3.20,0,0,0,81,false,stim,false,-1,592,2,0,1,72805,WMM1,129985,false,false,148,image-keyboard-response,21
true,1,0,0,0,true,q,false,false,0.0-2.0-0.2-0.21-3.21,0,0,0,81,false,stim,false,-1,880,2,1,0,72805,WMM1,132387,false,true,151,image-keyboard-response,22
true,1,0,0,0,true,q,false,true,0.0-2.0-0.2-0.22-3.22,0,0,0,81,false,stim,false,-1,842,2,0,1,72805,WMM1,134763,false,false,154,image-keyboard-response,23
true,1,1,0,0,false,q,true,false,0.0-2.0-0.2-0.23-3.23,0,0,0,90,false,stim,false,-1,907,2,1,0,72805,WMM1,137209,false,false,157,image-keyboard-response,24
true,1,0,0,0,true,q,false,true,0.0-2.0-0.2-0.24-3.24,0,0,0,81,false,stim,false,-1,589,2,0,1,72805,WMM1,139321,false,false,160,image-keyboard-response,25
true,1,1,0,1,true,z,false,true,0.0-2.0-0.2-0.25-3.25,0,0,0,90,false,stim,false,-1,437,2,0,2,72805,WMM1,141289,false,false,163,image-keyboard-response,26
true,1,2,0,0,false,q,true,false,0.0-2.0-0.2-0.26-3.26,0,0,0,68,false,stim,false,-1,528,2,1,0,72805,WMM1,143341,false,false,166,image-keyboard-response,27
true,1,0,0,0,true,q,false,true,0.0-2.0-0.3-0.27-3.27,0,0,0,81,false,stim,false,-1,616,2,0,1,72805,WMM1,145483,false,false,169,image-keyboard-response,28
true,1,0,0,0,true,q,false,false,0.0-2.0-0.3-0.28-3.28,0,0,0,81,false,stim,false,-1,470,2,0,1,72805,WMM1,147482,false,true,172,image-keyboard-response,29
true,1,0,0,0,true,q,false,true,0.0-2.0-0.3-0.29-3.29,0,0,0,81,false,stim,false,-1,557,2,1,0,72805,WMM1,149569,false,false,175,image-keyboard-response,30
true,2,1,3,0,false,q,false,false,0.0-2.0-0.3-0.30-3.30,1,0,0,90,true,stim,true,1,618,2,0,2,72805,WMM1,151710,false,false,178,image-keyboard-response,1
true,2,0,3,1,false,z,false,false,0.0-2.0-0.3-0.31-3.31,1,0,0,81,false,stim,true,0,615,2,0,1,72805,WMM1,153867,false,false,181,image-keyboard-response,2
true,2,1,3,0,false,q,false,false,0.0-2.0-0.3-0.32-3.32,1,0,0,90,false,stim,true,1,1102,2,0,2,72805,WMM1,156489,false,false,184,image-keyboard-response,3
true,2,2,3,0,false,q,true,false,0.0-2.0-0.3-0.33-3.33,1,0,0,68,false,stim,false,1,558,2,0,2,72805,WMM1,158570,false,false,187,image-keyboard-response,4
true,2,0,3,0,true,q,false,true,0.0-2.0-0.3-0.34-3.34,1,0,0,81,false,stim,false,0,730,2,1,0,72805,WMM1,160822,false,false,190,image-keyboard-response,5
true,2,0,3,0,true,q,false,true,0.0-2.0-0.3-0.35-3.35,1,0,0,81,false,stim,false,0,542,2,1,0,72805,WMM1,162894,false,false,193,image-keyboard-response,6
true,2,1,3,1,true,z,false,false,0.0-2.0-0.4-0.36-3.36,1,0,0,90,false,stim,false,0,560,2,0,1,72805,WMM1,164993,false,true,196,image-keyboard-response,7
true,2,2,3,1,false,z,true,false,0.0-2.0-0.4-0.37-3.37,1,0,0,68,false,stim,false,0,1210,2,0,1,72805,WMM1,167742,false,false,199,image-keyboard-response,8
true,2,1,3,0,false,q,false,false,0.0-2.0-0.4-0.38-3.38,1,0,0,90,false,stim,true,1,1216,2,0,2,72805,WMM1,170487,false,false,202,image-keyboard-response,9
true,2,0,3,0,true,q,false,true,0.0-2.0-0.4-0.39-3.39,1,0,0,81,false,stim,false,0,835,2,1,0,72805,WMM1,172848,false,false,205,image-keyboard-response,10
true,2,0,3,0,true,q,false,true,0.0-2.0-0.4-0.40-3.40,1,0,0,81,false,stim,false,0,349,2,1,0,72805,WMM1,174721,false,false,208,image-keyboard-response,11
true,2,2,3,0,false,q,true,false,0.0-2.0-0.4-0.41-3.41,1,0,0,68,false,stim,false,1,1100,2,0,2,72805,WMM1,177353,false,false,211,image-keyboard-response,12
true,2,0,3,0,true,q,false,true,0.0-2.0-0.4-0.42-3.42,1,0,0,81,false,stim,false,0,411,2,1,0,72805,WMM1,179303,false,false,214,image-keyboard-response,13
true,2,0,3,0,true,q,false,true,0.0-2.0-0.4-0.43-3.43,1,0,0,81,false,stim,false,1,410,2,0,2,72805,WMM1,181252,false,false,217,image-keyboard-response,14
true,2,0,3,1,false,z,false,false,0.0-2.0-0.4-0.44-3.44,1,0,0,81,false,stim,true,0,347,2,0,1,72805,WMM1,183120,false,false,220,image-keyboard-response,15
true,2,0,3,0,true,q,false,true,0.0-2.0-0.5-0.45-3.45,1,0,0,81,false,stim,false,1,481,2,0,2,72805,WMM1,185132,false,false,223,image-keyboard-response,16
true,2,2,3,1,false,z,true,false,0.0-2.0-0.5-0.46-3.46,1,0,0,68,false,stim,false,0,652,2,0,1,72805,WMM1,187324,false,false,226,image-keyboard-response,17
true,2,0,3,0,true,q,false,true,0.0-2.0-0.5-0.47-3.47,1,0,0,81,false,stim,false,1,614,2,0,2,72805,WMM1,189467,false,false,229,image-keyboard-response,18
true,2,1,3,1,true,z,false,true,0.0-2.0-0.5-0.48-3.48,1,0,0,90,false,stim,false,0,522,2,0,1,72805,WMM1,191513,false,false,232,image-keyboard-response,19
true,2,0,3,0,true,q,false,true,0.0-2.0-0.5-0.49-3.49,1,0,0,81,false,stim,false,0,1072,2,1,0,72805,WMM1,194120,false,false,235,image-keyboard-response,20
true,2,1,3,1,true,z,false,true,0.0-2.0-0.5-0.50-3.50,1,0,0,90,false,stim,false,0,644,2,0,1,72805,WMM1,196307,false,false,238,image-keyboard-response,21
true,2,0,3,0,true,q,false,true,0.0-2.0-0.5-0.51-3.51,1,0,0,81,false,stim,false,0,596,2,0,0,72805,WMM1,198438,false,false,241,image-keyboard-response,22
true,2,0,3,0,true,q,false,true,0.0-2.0-0.5-0.52-3.52,1,0,0,81,false,stim,false,0,612,2,0,0,72805,WMM1,200571,false,false,244,image-keyboard-response,23
true,2,0,3,0,true,q,false,true,0.0-2.0-0.5-0.53-3.53,1,0,0,81,false,stim,false,1,1502,2,0,2,72805,WMM1,203604,false,false,247,image-keyboard-response,24
true,2,0,3,0,true,q,false,true,0.0-2.0-0.6-0.54-3.54,1,0,0,81,false,stim,false,1,504,2,0,2,72805,WMM1,205646,false,false,250,image-keyboard-response,25
true,2,0,3,0,true,q,false,true,0.0-2.0-0.6-0.55-3.55,1,0,0,81,false,stim,false,0,730,2,0,0,72805,WMM1,207913,false,false,253,image-keyboard-response,26
true,2,0,3,0,true,q,false,true,0.0-2.0-0.6-0.56-3.56,1,0,0,81,false,stim,false,0,867,2,0,0,72805,WMM1,210310,false,false,256,image-keyboard-response,27
true,2,0,3,0,true,q,false,true,0.0-2.0-0.6-0.57-3.57,1,0,0,81,false,stim,false,1,1222,2,0,2,72805,WMM1,213063,false,false,259,image-keyboard-response,28
true,2,0,3,0,true,q,false,true,0.0-2.0-0.6-0.58-3.58,1,0,0,81,false,stim,false,0,981,2,0,0,72805,WMM1,215584,false,false,262,image-keyboard-response,29
true,2,0,3,0,true,q,false,true,0.0-2.0-0.6-0.59-3.59,1,0,0,81,false,stim,false,1,918,2,0,2,72805,WMM1,218040,false,false,265,image-keyboard-response,30
true,2,0,3,1,false,z,false,false,0.0-2.0-0.6-0.60-3.60,1,0,0,81,false,stim,true,0,1030,2,0,1,72805,WMM1,220591,false,false,268,image-keyboard-response,31
true,3,1,1,0,false,q,false,false,0.0-2.0-0.6-0.61-3.61,0,0,0,90,true,stim,true,1,352,2,0,1,72805,WMM1,222473,false,false,271,image-keyboard-response,1
true,3,2,1,0,false,q,true,true,0.0-2.0-0.6-0.62-3.62,0,0,0,68,false,stim,false,1,394,2,0,1,72805,WMM1,224397,false,true,274,image-keyboard-response,2
true,3,2,1,0,false,q,true,false,0.0-2.0-0.7-0.63-3.63,0,0,0,68,false,stim,false,1,341,2,0,1,72805,WMM1,226264,false,false,277,image-keyboard-response,3
true,3,0,1,2,false,d,false,false,0.0-2.0-0.7-0.64-3.64,0,0,0,81,false,stim,true,0,452,2,0,2,72805,WMM1,228253,false,false,280,image-keyboard-response,4
true,3,1,1,2,false,d,true,false,0.0-2.0-0.7-0.65-3.65,0,0,0,90,false,stim,false,0,657,2,0,2,72805,WMM1,230439,false,false,283,image-keyboard-response,5
true,3,2,1,0,false,q,true,true,0.0-2.0-0.7-0.66-3.66,0,0,0,68,false,stim,false,1,600,2,0,1,72805,WMM1,232561,false,true,286,image-keyboard-response,6
true,3,2,1,2,true,d,false,false,0.0-2.0-0.7-0.67-3.67,0,0,0,68,false,stim,false,0,341,2,0,2,72805,WMM1,234444,false,true,289,image-keyboard-response,7
true,3,2,1,0,false,q,true,false,0.0-2.0-0.7-0.68-3.68,0,0,0,68,false,stim,false,1,360,2,0,1,72805,WMM1,236342,false,false,292,image-keyboard-response,8
true,3,0,1,1,false,z,false,false,0.0-2.0-0.7-0.69-3.69,0,0,0,81,false,stim,true,0,431,2,0,0,72805,WMM1,238314,false,false,295,image-keyboard-response,9
true,3,1,1,1,true,z,false,true,0.0-2.0-0.7-0.70-3.70,0,0,0,90,false,stim,false,0,436,2,0,0,72805,WMM1,240283,false,false,298,image-keyboard-response,10
true,3,1,1,1,true,z,false,true,0.0-2.0-0.7-0.71-3.71,0,0,0,90,false,stim,false,0,409,2,0,0,72805,WMM1,242224,false,false,301,image-keyboard-response,11
true,3,2,1,0,false,q,true,false,0.0-2.0-0.8-0.72-3.72,0,0,0,68,false,stim,false,1,1363,2,0,1,72805,WMM1,245114,false,false,304,image-keyboard-response,12
true,3,0,1,2,false,d,false,false,0.0-2.0-0.8-0.73-3.73,0,0,0,81,false,stim,true,0,693,2,0,2,72805,WMM1,247335,false,false,307,image-keyboard-response,13
true,3,1,1,1,true,z,false,true,0.0-2.0-0.8-0.74-3.74,0,0,0,90,false,stim,false,0,824,2,0,0,72805,WMM1,249686,false,false,310,image-keyboard-response,14
true,3,0,1,0,true,q,false,true,0.0-2.0-0.8-0.75-3.75,0,0,0,81,false,stim,false,1,388,2,0,1,72805,WMM1,251610,false,false,313,image-keyboard-response,15
true,3,0,1,0,true,q,false,true,0.0-2.0-0.8-0.76-3.76,0,0,0,81,false,stim,false,1,384,2,0,1,72805,WMM1,253522,false,false,316,image-keyboard-response,16
true,3,1,1,1,true,z,false,true,0.0-2.0-0.8-0.77-3.77,0,0,0,90,false,stim,false,0,828,2,0,0,72805,WMM1,255888,false,false,319,image-keyboard-response,17
true,3,2,1,2,true,d,false,true,0.0-2.0-0.8-0.78-3.78,0,0,0,68,false,stim,false,0,1021,2,0,2,72805,WMM1,258423,false,false,322,image-keyboard-response,18
true,3,1,1,1,true,z,false,true,0.0-2.0-0.8-0.79-3.79,0,0,0,90,false,stim,false,0,459,2,0,0,72805,WMM1,260421,false,false,325,image-keyboard-response,19
true,3,2,1,2,true,d,false,true,0.0-2.0-0.8-0.80-3.80,0,0,0,68,false,stim,false,0,690,2,0,2,72805,WMM1,262653,false,false,328,image-keyboard-response,20
true,3,0,1,0,true,q,false,true,0.0-2.0-0.9-0.81-3.81,0,0,0,81,false,stim,false,1,553,2,0,1,72805,WMM1,264746,false,false,331,image-keyboard-response,21
true,3,1,1,1,true,z,false,true,0.0-2.0-0.9-0.82-3.82,0,0,0,90,false,stim,false,0,984,2,0,0,72805,WMM1,267256,false,false,334,image-keyboard-response,22
true,3,1,1,1,true,z,false,true,0.0-2.0-0.9-0.83-3.83,0,0,0,90,false,stim,false,0,480,2,0,0,72805,WMM1,269263,false,false,337,image-keyboard-response,23
true,3,2,1,2,true,d,false,false,0.0-2.0-0.9-0.84-3.84,0,0,0,68,false,stim,false,0,534,2,0,2,72805,WMM1,271336,false,true,340,image-keyboard-response,24
true,3,1,1,1,true,z,false,true,0.0-2.0-0.9-0.85-3.85,0,0,0,90,false,stim,false,0,436,2,0,0,72805,WMM1,273299,false,false,343,image-keyboard-response,25
true,3,2,1,2,true,d,false,true,0.0-2.0-0.9-0.86-3.86,0,0,0,68,false,stim,false,0,562,2,0,2,72805,WMM1,275386,false,false,346,image-keyboard-response,26
true,3,2,1,2,true,d,false,true,0.0-2.0-0.9-0.87-3.87,0,0,0,68,false,stim,false,0,387,2,0,2,72805,WMM1,277299,false,false,349,image-keyboard-response,27
true,3,0,1,0,true,q,false,true,0.0-2.0-0.9-0.88-3.88,0,0,0,81,false,stim,false,1,588,2,0,1,72805,WMM1,279411,false,false,352,image-keyboard-response,28
true,3,0,1,0,true,q,false,false,0.0-2.0-0.9-0.89-3.89,0,0,0,81,false,stim,false,1,596,2,0,1,72805,WMM1,281538,false,true,355,image-keyboard-response,29
true,3,1,1,1,true,z,false,true,0.0-2.0-0.10-0.90-3.90,0,0,0,90,false,stim,false,0,1738,2,0,0,72805,WMM1,284801,false,false,358,image-keyboard-response,30
true,4,2,1,0,false,q,false,true,0.0-2.0-0.10-0.91-3.91,0,0,0,68,true,stim,true,2,710,2,0,2,72805,WMM1,287053,false,true,361,image-keyboard-response,1
true,4,2,1,0,false,q,false,false,0.0-2.0-0.10-0.92-3.92,0,0,0,68,false,stim,true,2,409,2,0,2,72805,WMM1,288982,false,false,364,image-keyboard-response,2
true,4,0,1,2,false,d,false,true,0.0-2.0-0.10-0.93-3.93,0,0,0,81,false,stim,true,0,1726,2,0,1,72805,WMM1,292239,false,true,367,image-keyboard-response,3
true,4,1,1,0,false,q,false,false,0.0-2.0-0.10-0.94-3.94,0,0,0,90,false,stim,true,1,1081,2,0,0,72805,WMM1,294844,false,false,370,image-keyboard-response,4
true,4,1,1,0,false,q,false,false,0.0-2.0-0.10-0.95-3.95,0,0,0,90,false,stim,true,1,1305,2,0,0,72805,WMM1,297688,false,false,373,image-keyboard-response,5
true,4,1,1,0,false,q,true,false,0.0-2.0-0.10-0.96-3.96,0,0,0,90,false,stim,false,2,897,2,0,2,72805,WMM1,300114,false,false,376,image-keyboard-response,6
true,4,0,1,2,false,d,false,false,0.0-2.0-0.10-0.97-3.97,0,0,0,81,false,stim,true,0,562,2,0,1,72805,WMM1,302206,false,false,379,image-keyboard-response,7
true,4,2,1,2,true,d,false,true,0.0-2.0-0.10-0.98-3.98,0,0,0,68,false,stim,false,0,587,2,0,1,72805,WMM1,304328,false,false,382,image-keyboard-response,8
true,4,2,1,2,true,d,false,true,0.0-2.0-0.11-0.99-3.99,0,0,0,68,false,stim,false,0,519,2,0,1,72805,WMM1,306381,false,false,385,image-keyboard-response,9
true,4,0,1,0,true,q,false,true,0.0-2.0-0.11-0.100-3.100,0,0,0,81,false,stim,false,1,1459,2,0,0,72805,WMM1,309380,false,false,388,image-keyboard-response,10
true,4,0,1,0,true,q,false,true,0.0-2.0-0.11-0.101-3.101,0,0,0,81,false,stim,false,1,526,2,0,0,72805,WMM1,311437,false,false,391,image-keyboard-response,11
true,4,0,1,0,true,q,false,true,0.0-2.0-0.11-0.102-3.102,0,0,0,81,false,stim,false,2,751,2,0,2,72805,WMM1,313723,false,false,394,image-keyboard-response,12
true,4,2,1,2,true,d,false,true,0.0-2.0-0.11-0.103-3.103,0,0,0,68,false,stim,false,0,334,2,0,1,72805,WMM1,315587,false,false,397,image-keyboard-response,13
true,4,2,1,2,true,d,false,true,0.0-2.0-0.11-0.104-3.104,0,0,0,68,false,stim,false,0,497,2,0,1,72805,WMM1,317600,false,false,400,image-keyboard-response,14
true,4,0,1,0,true,q,false,true,0.0-2.0-0.11-0.105-3.105,0,0,0,81,false,stim,false,2,449,2,0,2,72805,WMM1,319582,false,false,403,image-keyboard-response,15
true,4,0,1,0,true,q,false,true,0.0-2.0-0.11-0.106-3.106,0,0,0,81,false,stim,false,2,551,2,0,2,72805,WMM1,321664,false,false,406,image-keyboard-response,16
true,4,0,1,0,true,q,false,true,0.0-2.0-0.11-0.107-3.107,0,0,0,81,false,stim,false,1,545,2,0,0,72805,WMM1,323737,false,false,409,image-keyboard-response,17
true,4,2,1,2,true,d,false,true,0.0-2.0-0.12-0.108-3.108,0,0,0,68,false,stim,false,0,975,2,0,1,72805,WMM1,326247,false,false,412,image-keyboard-response,18
true,4,0,1,0,true,q,false,true,0.0-2.0-0.12-0.109-3.109,0,0,0,81,false,stim,false,2,971,2,0,2,72805,WMM1,328743,false,false,415,image-keyboard-response,19
true,4,0,1,0,true,q,false,true,0.0-2.0-0.12-0.110-3.110,0,0,0,81,false,stim,false,2,502,2,0,2,72805,WMM1,330770,false,false,418,image-keyboard-response,20
true,4,0,1,0,true,q,false,true,0.0-2.0-0.12-0.111-3.111,0,0,0,81,false,stim,false,2,375,2,0,2,72805,WMM1,332689,false,false,421,image-keyboard-response,21
true,4,2,1,2,true,d,false,true,0.0-2.0-0.12-0.112-3.112,0,0,0,68,false,stim,false,0,564,2,0,1,72805,WMM1,334776,false,false,424,image-keyboard-response,22
true,4,0,1,0,true,q,false,true,0.0-2.0-0.12-0.113-3.113,0,0,0,81,false,stim,false,1,541,2,0,0,72805,WMM1,336853,false,false,427,image-keyboard-response,23
true,4,0,1,0,true,q,false,true,0.0-2.0-0.12-0.114-3.114,0,0,0,81,false,stim,false,1,1270,2,0,0,72805,WMM1,339662,false,false,430,image-keyboard-response,24
true,4,2,1,2,true,d,false,true,0.0-2.0-0.12-0.115-3.115,0,0,0,68,false,stim,false,0,492,2,0,1,72805,WMM1,341684,false,false,433,image-keyboard-response,25
true,4,0,1,0,true,q,false,true,0.0-2.0-0.12-0.116-3.116,0,0,0,81,false,stim,false,1,481,2,0,0,72805,WMM1,343693,false,false,436,image-keyboard-response,26
true,4,0,1,0,true,q,false,false,0.0-2.0-0.13-0.117-3.117,0,0,0,81,false,stim,false,1,960,2,0,0,72805,WMM1,346193,false,true,439,image-keyboard-response,27
true,4,0,1,0,true,q,false,true,0.0-2.0-0.13-0.118-3.118,0,0,0,81,false,stim,false,2,603,2,0,2,72805,WMM1,348335,false,false,442,image-keyboard-response,28
true,4,2,1,0,false,q,false,false,0.0-2.0-0.13-0.119-3.119,0,0,0,68,false,stim,true,2,355,2,0,2,72805,WMM1,350228,false,false,445,image-keyboard-response,29
true,4,0,1,0,true,q,false,true,0.0-2.0-0.13-0.120-3.120,0,0,0,81,false,stim,false,2,478,2,0,2,72805,WMM1,352230,false,false,448,image-keyboard-response,30
true,5,1,2,1,true,z,false,true,0.0-2.0-0.13-0.121-3.121,0,0,0,90,true,stim,false,0,1014,2,0,0,72805,WMM1,354787,false,false,451,image-keyboard-response,1
true,5,2,2,0,false,q,false,false,0.0-2.0-0.13-0.122-3.122,0,0,0,68,false,stim,true,2,724,2,0,1,72805,WMM1,357033,false,false,454,image-keyboard-response,2
true,5,2,2,0,false,q,false,true,0.0-2.0-0.13-0.123-3.123,0,0,0,68,false,stim,true,2,552,2,0,1,72805,WMM1,359115,false,true,457,image-keyboard-response,3
true,5,1,2,1,true,z,false,true,0.0-2.0-0.13-0.124-3.124,0,0,0,90,false,stim,false,0,416,2,0,0,72805,WMM1,361058,false,false,460,image-keyboard-response,4
true,5,2,2,0,false,q,false,false,0.0-2.0-0.13-0.125-3.125,0,0,0,68,false,stim,true,2,562,2,0,1,72805,WMM1,363135,false,false,463,image-keyboard-response,5
true,5,2,2,0,false,q,false,false,0.0-2.0-0.14-0.126-3.126,0,0,0,68,false,stim,true,2,823,2,0,1,72805,WMM1,365487,false,false,466,image-keyboard-response,6
true,5,0,2,0,true,q,false,true,0.0-2.0-0.14-0.127-3.127,0,0,0,81,false,stim,false,2,1155,2,0,1,72805,WMM1,368178,false,false,469,image-keyboard-response,7
true,5,1,2,2,false,d,true,false,0.0-2.0-0.14-0.128-3.128,0,0,0,90,false,stim,false,0,942,2,0,2,72805,WMM1,370643,false,false,472,image-keyboard-response,8
true,5,0,2,0,true,q,false,true,0.0-2.0-0.14-0.129-3.129,0,0,0,81,false,stim,false,2,552,2,0,1,72805,WMM1,372735,false,false,475,image-keyboard-response,9
true,5,1,2,1,true,z,false,true,0.0-2.0-0.14-0.130-3.130,0,0,0,90,false,stim,false,0,591,2,0,0,72805,WMM1,374852,false,false,478,image-keyboard-response,10
true,5,1,2,1,true,z,false,true,0.0-2.0-0.14-0.131-3.131,0,0,0,90,false,stim,false,0,481,2,0,0,72805,WMM1,376864,false,false,481,image-keyboard-response,11
true,5,1,2,1,true,z,false,true,0.0-2.0-0.14-0.132-3.132,0,0,0,90,false,stim,false,0,435,2,0,0,72805,WMM1,378838,false,false,484,image-keyboard-response,12
true,5,2,2,2,true,d,false,true,0.0-2.0-0.14-0.133-3.133,0,0,0,68,false,stim,false,0,1180,2,0,2,72805,WMM1,381542,false,false,487,image-keyboard-response,13
true,5,2,2,2,true,d,false,true,0.0-2.0-0.14-0.134-3.134,0,0,0,68,false,stim,false,0,397,2,0,2,72805,WMM1,383481,false,false,490,image-keyboard-response,14
true,5,1,2,1,true,z,false,true,0.0-2.0-0.15-0.135-3.135,0,0,0,90,false,stim,false,0,709,2,0,0,72805,WMM1,385712,false,false,493,image-keyboard-response,15
true,5,0,2,0,true,q,false,true,0.0-2.0-0.15-0.136-3.136,0,0,0,81,false,stim,false,2,561,2,0,1,72805,WMM1,387804,false,false,496,image-keyboard-response,16
true,5,2,2,2,true,d,false,true,0.0-2.0-0.15-0.137-3.137,0,0,0,68,false,stim,false,0,630,2,0,2,72805,WMM1,389972,false,false,499,image-keyboard-response,17
true,5,0,2,0,true,q,false,true,0.0-2.0-0.15-0.138-3.138,0,0,0,81,false,stim,false,2,891,2,0,1,72805,WMM1,392392,false,false,502,image-keyboard-response,18
true,5,1,2,1,true,z,false,true,0.0-2.0-0.15-0.139-3.139,0,0,0,90,false,stim,false,0,1419,2,0,0,72805,WMM1,395342,false,false,505,image-keyboard-response,19
true,5,2,2,2,true,d,false,true,0.0-2.0-0.15-0.140-3.140,0,0,0,68,false,stim,false,0,600,2,0,2,72805,WMM1,397483,false,false,508,image-keyboard-response,20
true,5,2,2,2,true,d,false,true,0.0-2.0-0.15-0.141-3.141,0,0,0,68,false,stim,false,0,414,2,0,2,72805,WMM1,399437,false,false,511,image-keyboard-response,21
true,5,0,2,0,true,q,false,true,0.0-2.0-0.15-0.142-3.142,0,0,0,81,false,stim,false,2,816,2,0,1,72805,WMM1,401777,false,false,514,image-keyboard-response,22
true,5,1,2,1,true,z,false,true,0.0-2.0-0.15-0.143-3.143,0,0,0,90,false,stim,false,0,851,2,0,0,72805,WMM1,404154,false,false,517,image-keyboard-response,23
true,5,1,2,1,true,z,false,true,0.0-2.0-0.16-0.144-3.144,0,0,0,90,false,stim,false,0,474,2,0,0,72805,WMM1,406157,false,false,520,image-keyboard-response,24
true,5,1,2,1,true,z,false,true,0.0-2.0-0.16-0.145-3.145,0,0,0,90,false,stim,false,0,1348,2,0,0,72805,WMM1,409031,false,false,523,image-keyboard-response,25
true,5,2,2,2,true,d,false,true,0.0-2.0-0.16-0.146-3.146,0,0,0,68,false,stim,false,0,618,2,0,2,72805,WMM1,411180,false,false,526,image-keyboard-response,26
true,5,1,2,1,true,z,false,true,0.0-2.0-0.16-0.147-3.147,0,0,0,90,false,stim,false,0,683,2,0,0,72805,WMM1,413384,false,false,529,image-keyboard-response,27
true,5,0,2,0,true,q,false,true,0.0-2.0-0.16-0.148-3.148,0,0,0,81,false,stim,false,2,625,2,0,1,72805,WMM1,415547,false,false,532,image-keyboard-response,28
true,5,0,2,0,true,q,false,true,0.0-2.0-0.16-0.149-3.149,0,0,0,81,false,stim,false,2,362,2,0,1,72805,WMM1,417445,false,false,535,image-keyboard-response,29
true,5,2,2,2,true,d,false,true,0.0-2.0-0.16-0.150-3.150,0,0,0,68,false,stim,false,0,1406,2,0,2,72805,WMM1,420389,false,false,538,image-keyboard-response,30
true,6,2,1,1,false,z,false,true,0.0-2.0-0.16-0.151-3.151,0,0,0,68,true,stim,true,2,414,2,0,2,72805,WMM1,422337,false,true,541,image-keyboard-response,1
true,6,0,1,2,false,d,false,false,0.0-2.0-0.16-0.152-3.152,0,0,0,81,false,stim,true,0,949,2,0,1,72805,WMM1,424813,false,false,544,image-keyboard-response,2
true,6,1,1,2,false,d,false,true,0.0-2.0-0.17-0.153-3.153,0,0,0,90,false,stim,true,1,702,2,0,0,72805,WMM1,427044,false,true,547,image-keyboard-response,3
true,6,1,1,2,false,d,false,false,0.0-2.0-0.17-0.154-3.154,0,0,0,90,false,stim,true,1,680,2,0,0,72805,WMM1,429252,false,false,550,image-keyboard-response,4
true,6,0,1,2,false,d,false,false,0.0-2.0-0.17-0.155-3.155,0,0,0,81,false,stim,true,0,776,2,0,1,72805,WMM1,431569,false,false,553,image-keyboard-response,5
true,6,2,1,1,false,z,false,false,0.0-2.0-0.17-0.156-3.156,0,0,0,68,false,stim,true,2,677,2,0,2,72805,WMM1,433770,false,false,556,image-keyboard-response,6
true,6,2,1,2,true,d,false,true,0.0-2.0-0.17-0.157-3.157,0,0,0,68,false,stim,false,0,450,2,0,1,72805,WMM1,435744,false,false,559,image-keyboard-response,7
true,6,0,1,2,false,d,true,false,0.0-2.0-0.17-0.158-3.158,0,0,0,81,false,stim,false,1,1055,2,0,0,72805,WMM1,438339,false,false,562,image-keyboard-response,8
true,6,0,1,1,false,z,true,false,0.0-2.0-0.17-0.159-3.159,0,0,0,81,false,stim,false,2,946,2,0,2,72805,WMM1,440810,false,false,565,image-keyboard-response,9
true,6,2,1,1,false,z,false,false,0.0-2.0-0.17-0.160-3.160,0,0,0,68,false,stim,true,2,665,2,0,2,72805,WMM1,443007,false,false,568,image-keyboard-response,10
true,6,2,1,2,true,d,false,true,0.0-2.0-0.17-0.161-3.161,0,0,0,68,false,stim,false,0,545,2,0,1,72805,WMM1,445089,false,false,571,image-keyboard-response,11
true,6,1,1,2,false,d,false,false,0.0-2.0-0.18-0.162-3.162,0,0,0,90,false,stim,true,1,747,2,0,0,72805,WMM1,447372,false,false,574,image-keyboard-response,12
true,6,2,1,2,true,d,false,true,0.0-2.0-0.18-0.163-3.163,0,0,0,68,false,stim,false,0,755,2,0,1,72805,WMM1,449658,false,false,577,image-keyboard-response,13
true,6,2,1,2,true,d,false,true,0.0-2.0-0.18-0.164-3.164,0,0,0,68,false,stim,false,0,517,2,0,1,72805,WMM1,451710,false,false,580,image-keyboard-response,14
true,6,1,1,2,false,d,false,false,0.0-2.0-0.18-0.165-3.165,0,0,0,90,false,stim,true,1,1318,2,0,0,72805,WMM1,454550,false,false,583,image-keyboard-response,15
true,6,1,1,1,true,z,false,true,0.0-2.0-0.18-0.166-3.166,0,0,0,90,false,stim,false,2,395,2,0,2,72805,WMM1,456488,false,false,586,image-keyboard-response,16
true,6,2,1,2,true,d,false,true,0.0-2.0-0.18-0.167-3.167,0,0,0,68,false,stim,false,0,508,2,0,1,72805,WMM1,458521,false,false,589,image-keyboard-response,17
true,6,2,1,2,true,d,false,false,0.0-2.0-0.18-0.168-3.168,0,0,0,68,false,stim,false,1,416,2,0,0,72805,WMM1,460468,false,true,592,image-keyboard-response,18
true,6,1,1,1,true,z,false,true,0.0-2.0-0.18-0.169-3.169,0,0,0,90,false,stim,false,2,999,2,0,2,72805,WMM1,462992,false,false,595,image-keyboard-response,19
true,6,1,1,1,true,z,false,true,0.0-2.0-0.18-0.170-3.170,0,0,0,90,false,stim,false,2,439,2,0,2,72805,WMM1,464973,false,false,598,image-keyboard-response,20
true,6,0,1,2,false,d,true,false,0.0-2.0-0.19-0.171-3.171,0,0,0,81,false,stim,false,1,642,2,0,0,72805,WMM1,467160,false,false,601,image-keyboard-response,21
true,6,2,1,2,true,d,false,true,0.0-2.0-0.19-0.172-3.172,0,0,0,68,false,stim,false,0,848,2,0,1,72805,WMM1,469541,false,false,604,image-keyboard-response,22
true,6,1,1,2,false,d,false,false,0.0-2.0-0.19-0.173-3.173,0,0,0,90,false,stim,true,1,561,2,0,0,72805,WMM1,471644,false,false,607,image-keyboard-response,23
true,6,2,1,2,true,d,false,true,0.0-2.0-0.19-0.174-3.174,0,0,0,68,false,stim,false,0,633,2,0,1,72805,WMM1,473815,false,false,610,image-keyboard-response,24
true,6,2,1,2,true,d,false,true,0.0-2.0-0.19-0.175-3.175,0,0,0,68,false,stim,false,0,491,2,0,1,72805,WMM1,475833,false,false,613,image-keyboard-response,25
true,6,1,1,1,true,z,false,false,0.0-2.0-0.19-0.176-3.176,0,0,0,90,false,stim,false,2,673,2,0,2,72805,WMM1,478035,false,true,616,image-keyboard-response,26
true,6,1,1,1,true,z,false,true,0.0-2.0-0.19-0.177-3.177,0,0,0,90,false,stim,false,2,431,2,0,2,72805,WMM1,479994,false,false,619,image-keyboard-response,27
true,6,2,1,2,true,d,false,true,0.0-2.0-0.19-0.178-3.178,0,0,0,68,false,stim,false,1,454,2,0,0,72805,WMM1,481977,false,false,622,image-keyboard-response,28
true,6,1,1,1,true,z,false,true,0.0-2.0-0.19-0.179-3.179,0,0,0,90,false,stim,false,2,1061,2,0,2,72805,WMM1,484562,false,false,625,image-keyboard-response,29
true,6,1,1,1,true,z,false,true,0.0-2.0-0.20-0.180-3.180,0,0,0,90,false,stim,false,2,1589,2,0,2,72805,WMM1,487692,false,false,628,image-keyboard-response,30
true,6,1,1,1,true,z,false,true,0.0-2.0-0.20-0.181-3.181,0,0,0,90,false,stim,false,2,468,2,0,2,72805,WMM1,489690,false,false,631,image-keyboard-response,31
true,6,2,1,2,true,d,false,true,0.0-2.0-0.20-0.182-3.182,0,0,0,68,false,stim,false,0,476,2,0,1,72805,WMM1,491698,false,false,634,image-keyboard-response,32
true,6,1,1,1,true,z,false,true,0.0-2.0-0.20-0.183-3.183,0,0,0,90,false,stim,false,2,932,2,0,2,72805,WMM1,494154,false,false,637,image-keyboard-response,33
true,6,2,1,2,true,d,false,true,0.0-2.0-0.20-0.184-3.184,0,0,0,68,false,stim,false,0,718,2,0,1,72805,WMM1,496401,false,false,640,image-keyboard-response,34
true,6,1,1,2,false,d,false,false,0.0-2.0-0.20-0.185-3.185,0,0,0,90,false,stim,true,1,905,2,0,0,72805,WMM1,498847,false,false,643,image-keyboard-response,35
true,6,2,1,2,true,d,false,true,0.0-2.0-0.20-0.186-3.186,0,0,0,68,false,stim,false,0,422,2,0,1,72805,WMM1,500805,false,false,646,image-keyboard-response,36
true,6,2,1,2,true,d,false,false,0.0-2.0-0.20-0.187-3.187,0,0,0,68,false,stim,false,1,408,2,0,0,72805,WMM1,502749,false,true,649,image-keyboard-response,37
true,6,0,1,2,false,d,true,false,0.0-2.0-0.20-0.188-3.188,0,0,0,81,false,stim,false,1,613,2,0,0,72805,WMM1,504897,false,false,652,image-keyboard-response,38
true,6,2,1,2,true,d,false,true,0.0-2.0-0.21-0.189-3.189,0,0,0,68,false,stim,false,0,521,2,0,1,72805,WMM1,506955,false,false,655,image-keyboard-response,39
true,6,2,1,2,true,d,false,true,0.0-2.0-0.21-0.190-3.190,0,0,0,68,false,stim,false,1,380,2,0,0,72805,WMM1,508863,false,false,658,image-keyboard-response,40
true,6,1,1,1,true,z,false,true,0.0-2.0-0.21-0.191-3.191,0,0,0,90,false,stim,false,2,420,2,0,2,72805,WMM1,510822,false,false,661,image-keyboard-response,41
true,6,1,1,2,false,d,false,false,0.0-2.0-0.21-0.192-3.192,0,0,0,90,false,stim,true,1,920,2,0,0,72805,WMM1,513282,false,false,664,image-keyboard-response,42
true,6,1,1,1,true,z,false,true,0.0-2.0-0.21-0.193-3.193,0,0,0,90,false,stim,false,2,856,2,0,2,72805,WMM1,515679,false,false,667,image-keyboard-response,43
true,6,2,1,2,true,d,false,true,0.0-2.0-0.21-0.194-3.194,0,0,0,68,false,stim,false,0,529,2,0,1,72805,WMM1,517752,false,false,670,image-keyboard-response,44
true,6,2,1,2,true,d,false,true,0.0-2.0-0.21-0.195-3.195,0,0,0,68,false,stim,false,0,428,2,0,1,72805,WMM1,519710,false,false,673,image-keyboard-response,45
true,6,2,1,2,true,d,false,false,0.0-2.0-0.21-0.196-3.196,0,0,0,68,false,stim,false,1,520,2,0,0,72805,WMM1,521743,false,true,676,image-keyboard-response,46
true,6,1,1,1,true,z,false,true,0.0-2.0-0.21-0.197-3.197,0,0,0,90,false,stim,false,2,947,2,0,2,72805,WMM1,524229,false,false,679,image-keyboard-response,47
true,6,2,1,2,true,d,false,true,0.0-2.0-0.22-0.198-3.198,0,0,0,68,false,stim,false,1,495,2,0,0,72805,WMM1,526258,false,false,682,image-keyboard-response,48
true,6,2,1,2,true,d,false,true,0.0-2.0-0.22-0.199-3.199,0,0,0,68,false,stim,false,1,480,2,0,0,72805,WMM1,528260,false,false,685,image-keyboard-response,49
true,6,2,1,2,true,d,false,true,0.0-2.0-0.22-0.200-3.200,0,0,0,68,false,stim,false,0,1260,2,0,1,72805,WMM1,531062,false,false,688,image-keyboard-response,50
true,6,2,1,2,true,d,false,true,0.0-2.0-0.22-0.201-3.201,0,0,0,68,false,stim,false,0,1547,2,0,1,72805,WMM1,534150,false,false,691,image-keyboard-response,51
true,6,2,1,2,true,d,false,true,0.0-2.0-0.22-0.202-3.202,0,0,0,68,false,stim,false,0,466,2,0,1,72805,WMM1,536148,false,false,694,image-keyboard-response,52
true,6,2,1,2,true,d,false,true,0.0-2.0-0.22-0.203-3.203,0,0,0,68,false,stim,false,1,1047,2,0,0,72805,WMM1,538730,false,false,697,image-keyboard-response,53
true,6,1,1,1,true,z,false,true,0.0-2.0-0.22-0.204-3.204,0,0,0,90,false,stim,false,2,509,2,0,2,72805,WMM1,540763,false,false,700,image-keyboard-response,54
true,6,1,1,1,true,z,false,true,0.0-2.0-0.22-0.205-3.205,0,0,0,90,false,stim,false,2,399,2,0,2,72805,WMM1,542691,false,false,703,image-keyboard-response,55
true,6,1,1,1,true,z,false,true,0.0-2.0-0.22-0.206-3.206,0,0,0,90,false,stim,false,2,671,2,0,2,72805,WMM1,544903,false,false,706,image-keyboard-response,56
true,6,2,1,2,true,d,false,true,0.0-2.0-0.23-0.207-3.207,0,0,0,68,false,stim,false,0,848,2,0,1,72805,WMM1,547280,false,false,709,image-keyboard-response,57
true,6,2,1,1,false,z,false,false,0.0-2.0-0.23-0.208-3.208,0,0,0,68,false,stim,true,2,984,2,0,2,72805,WMM1,549796,false,false,712,image-keyboard-response,58
true,7,1,2,2,false,d,false,false,0.0-2.0-0.23-0.209-3.209,0,0,0,90,true,stim,true,1,507,2,0,2,72805,WMM1,551840,false,false,715,image-keyboard-response,1
true,7,1,2,2,false,d,false,false,0.0-2.0-0.23-0.210-3.210,0,0,0,90,false,stim,true,1,380,2,0,2,72805,WMM1,553753,false,false,718,image-keyboard-response,2
true,7,2,2,1,false,z,false,false,0.0-2.0-0.23-0.211-3.211,0,0,0,68,false,stim,true,2,533,2,0,0,72805,WMM1,555816,false,false,721,image-keyboard-response,3
true,7,1,2,1,true,z,false,false,0.0-2.0-0.23-0.212-3.212,0,0,0,90,false,stim,false,2,1060,2,0,0,72805,WMM1,558403,false,true,724,image-keyboard-response,4
true,7,2,2,0,false,q,false,false,0.0-2.0-0.23-0.213-3.213,0,0,0,68,false,stim,true,2,592,2,0,1,72805,WMM1,560535,false,false,727,image-keyboard-response,5
true,7,2,2,0,false,q,false,false,0.0-2.0-0.23-0.214-3.214,0,0,0,68,false,stim,true,2,859,2,0,1,72805,WMM1,562922,false,false,730,image-keyboard-response,6
true,7,2,2,1,false,z,false,true,0.0-2.0-0.23-0.215-3.215,0,0,0,68,false,stim,true,2,1304,2,0,0,72805,WMM1,565767,false,true,733,image-keyboard-response,7
true,7,0,2,2,false,d,true,false,0.0-2.0-0.24-0.216-3.216,0,0,0,81,false,stim,false,1,896,2,0,2,72805,WMM1,568198,false,false,736,image-keyboard-response,8
true,7,0,2,0,true,q,false,true,0.0-2.0-0.24-0.217-3.217,0,0,0,81,false,stim,false,2,438,2,0,1,72805,WMM1,570162,false,false,739,image-keyboard-response,9
true,7,0,2,0,true,q,false,true,0.0-2.0-0.24-0.218-3.218,0,0,0,81,false,stim,false,2,427,2,0,1,72805,WMM1,572130,false,false,742,image-keyboard-response,10
true,7,2,2,2,true,d,false,true,0.0-2.0-0.24-0.219-3.219,0,0,0,68,false,stim,false,1,850,2,0,2,72805,WMM1,574513,false,false,745,image-keyboard-response,11
true,7,2,2,1,false,z,false,false,0.0-2.0-0.24-0.220-3.220,0,0,0,68,false,stim,true,2,572,2,0,0,72805,WMM1,576614,false,false,748,image-keyboard-response,12
true,7,2,2,2,true,d,false,true,0.0-2.0-0.24-0.221-3.221,0,0,0,68,false,stim,false,1,615,2,0,2,72805,WMM1,578767,false,false,751,image-keyboard-response,13
true,7,0,2,0,true,q,false,false,0.0-2.0-0.24-0.222-3.222,0,0,0,81,false,stim,false,2,458,2,0,1,72805,WMM1,580750,false,true,754,image-keyboard-response,14
true,7,1,2,1,true,z,false,true,0.0-2.0-0.24-0.223-3.223,0,0,0,90,false,stim,false,2,1417,2,0,0,72805,WMM1,583710,false,false,757,image-keyboard-response,15
true,7,1,2,1,true,z,false,true,0.0-2.0-0.24-0.224-3.224,0,0,0,90,false,stim,false,2,436,2,0,0,72805,WMM1,585688,false,false,760,image-keyboard-response,16
true,7,1,2,1,true,z,false,true,0.0-2.0-0.25-0.225-3.225,0,0,0,90,false,stim,false,2,395,2,0,0,72805,WMM1,587607,false,false,763,image-keyboard-response,17
true,7,2,2,2,true,d,false,false,0.0-2.0-0.25-0.226-3.226,0,0,0,68,false,stim,false,1,538,2,0,2,72805,WMM1,589670,false,true,766,image-keyboard-response,18
true,7,2,2,0,false,q,false,false,0.0-2.0-0.25-0.227-3.227,0,0,0,68,false,stim,true,2,407,2,0,1,72805,WMM1,591599,false,false,769,image-keyboard-response,19
true,7,2,2,2,true,d,false,true,0.0-2.0-0.25-0.228-3.228,0,0,0,68,false,stim,false,1,365,2,0,2,72805,WMM1,593498,false,false,772,image-keyboard-response,20
true,7,1,2,1,true,z,false,true,0.0-2.0-0.25-0.229-3.229,0,0,0,90,false,stim,false,2,592,2,0,0,72805,WMM1,595624,false,false,775,image-keyboard-response,21
true,7,2,2,2,true,d,false,false,0.0-2.0-0.25-0.230-3.230,0,0,0,68,false,stim,false,1,690,2,0,2,72805,WMM1,597853,false,true,778,image-keyboard-response,22
true,7,0,2,0,true,q,false,true,0.0-2.0-0.25-0.231-3.231,0,0,0,81,false,stim,false,2,807,2,0,1,72805,WMM1,600189,false,false,781,image-keyboard-response,23
true,7,0,2,0,true,q,false,true,0.0-2.0-0.25-0.232-3.232,0,0,0,81,false,stim,false,2,379,2,0,1,72805,WMM1,602103,false,false,784,image-keyboard-response,24
true,7,1,2,1,true,z,false,true,0.0-2.0-0.25-0.233-3.233,0,0,0,90,false,stim,false,2,1668,2,0,0,72805,WMM1,605311,false,false,787,image-keyboard-response,25
true,7,2,2,2,true,d,false,true,0.0-2.0-0.26-0.234-3.234,0,0,0,68,false,stim,false,1,825,2,0,2,72805,WMM1,607669,false,false,790,image-keyboard-response,26
true,7,1,2,1,true,z,false,true,0.0-2.0-0.26-0.235-3.235,0,0,0,90,false,stim,false,2,639,2,0,0,72805,WMM1,609842,false,false,793,image-keyboard-response,27
true,7,0,2,0,true,q,false,false,0.0-2.0-0.26-0.236-3.236,0,0,0,81,false,stim,false,2,606,2,0,1,72805,WMM1,611989,false,true,796,image-keyboard-response,28
true,7,0,2,0,true,q,false,true,0.0-2.0-0.26-0.237-3.237,0,0,0,81,false,stim,false,2,384,2,0,1,72805,WMM1,613902,false,false,799,image-keyboard-response,29
true,7,2,2,2,true,d,false,true,0.0-2.0-0.26-0.238-3.238,0,0,0,68,false,stim,false,1,1628,2,0,2,72805,WMM1,617061,false,false,802,image-keyboard-response,30
true,7,1,2,1,true,z,false,true,0.0-2.0-0.26-0.239-3.239,0,0,0,90,false,stim,false,2,566,2,0,0,72805,WMM1,619169,false,false,805,image-keyboard-response,31
true,7,1,2,1,true,z,false,true,0.0-2.0-0.26-0.240-3.240,0,0,0,90,false,stim,false,2,371,2,0,0,72805,WMM1,621072,false,false,808,image-keyboard-response,32
true,7,0,2,0,true,q,false,true,0.0-2.0-0.26-0.241-3.241,0,0,0,81,false,stim,false,2,762,2,0,1,72805,WMM1,623365,false,false,811,image-keyboard-response,33
true,7,2,2,2,true,d,false,true,0.0-2.0-0.26-0.242-3.242,0,0,0,68,false,stim,false,1,728,2,0,2,72805,WMM1,625633,false,false,814,image-keyboard-response,34
true,8,2,1,1,false,z,false,false,0.0-2.0-0.27-0.243-3.243,0,0,0,68,true,stim,true,2,428,2,0,2,72805,WMM1,627600,false,false,817,image-keyboard-response,1
true,8,1,1,2,false,d,false,false,0.0-2.0-0.27-0.244-3.244,0,0,0,90,false,stim,true,1,520,2,0,0,72805,WMM1,629653,false,false,820,image-keyboard-response,2
true,8,0,1,1,false,z,false,false,0.0-2.0-0.27-0.245-3.245,0,0,0,81,false,stim,true,0,517,2,0,1,72805,WMM1,631701,false,false,823,image-keyboard-response,3
true,8,0,1,2,false,d,true,false,0.0-2.0-0.27-0.246-3.246,0,0,0,81,false,stim,false,1,795,2,0,0,72805,WMM1,634039,false,false,826,image-keyboard-response,4
true,8,0,1,1,false,z,true,false,0.0-2.0-0.27-0.247-3.247,0,0,0,81,false,stim,false,2,886,2,0,2,72805,WMM1,636450,false,false,829,image-keyboard-response,5
true,8,2,1,1,false,z,true,false,0.0-2.0-0.27-0.248-3.248,0,0,0,68,false,stim,false,0,635,2,0,1,72805,WMM1,638618,false,false,832,image-keyboard-response,6
true,8,1,1,1,true,z,false,true,0.0-2.0-0.27-0.249-3.249,0,0,0,90,false,stim,false,2,772,2,0,2,72805,WMM1,640925,false,false,835,image-keyboard-response,7
true,8,2,1,1,false,z,true,false,0.0-2.0-0.27-0.250-3.250,0,0,0,68,false,stim,false,0,670,2,0,1,72805,WMM1,643123,false,false,838,image-keyboard-response,8
true,8,1,1,2,false,d,false,true,0.0-2.0-0.27-0.251-3.251,0,0,0,90,false,stim,true,1,1280,2,0,0,72805,WMM1,645933,false,true,841,image-keyboard-response,9
true,8,1,1,1,true,z,false,true,0.0-2.0-0.28-0.252-3.252,0,0,0,90,false,stim,false,2,679,2,0,2,72805,WMM1,648153,false,false,844,image-keyboard-response,10
true,8,1,1,1,true,z,false,true,0.0-2.0-0.28-0.253-3.253,0,0,0,90,false,stim,false,2,500,2,0,2,72805,WMM1,650193,false,false,847,image-keyboard-response,11
true,8,1,1,1,true,z,false,true,0.0-2.0-0.28-0.254-3.254,0,0,0,90,false,stim,false,0,410,2,0,1,72805,WMM1,652143,false,false,850,image-keyboard-response,12
true,8,1,1,2,false,d,false,false,0.0-2.0-0.28-0.255-3.255,0,0,0,90,false,stim,true,1,556,2,0,0,72805,WMM1,654231,false,false,853,image-keyboard-response,13
true,8,1,1,2,false,d,false,false,0.0-2.0-0.28-0.256-3.256,0,0,0,90,false,stim,true,1,526,2,0,0,72805,WMM1,656288,false,false,856,image-keyboard-response,14
true,8,1,1,1,true,z,false,true,0.0-2.0-0.28-0.257-3.257,0,0,0,90,false,stim,false,0,529,2,0,1,72805,WMM1,658351,false,false,859,image-keyboard-response,15
true,8,1,1,1,true,z,false,true,0.0-2.0-0.28-0.258-3.258,0,0,0,90,false,stim,false,2,581,2,0,2,72805,WMM1,660464,false,false,862,image-keyboard-response,16
true,8,1,1,1,true,z,false,true,0.0-2.0-0.28-0.259-3.259,0,0,0,90,false,stim,false,0,438,2,0,1,72805,WMM1,662437,false,false,865,image-keyboard-response,17
true,8,2,1,2,true,d,false,true,0.0-2.0-0.28-0.260-3.260,0,0,0,68,false,stim,false,1,399,2,0,0,72805,WMM1,664361,false,false,868,image-keyboard-response,18
true,8,1,1,1,true,z,false,true,0.0-2.0-0.29-0.261-3.261,0,0,0,90,false,stim,false,2,506,2,0,2,72805,WMM1,666409,false,false,871,image-keyboard-response,19
true,8,1,1,2,false,d,false,false,0.0-2.0-0.29-0.262-3.262,0,0,0,90,false,stim,true,1,1660,2,0,0,72805,WMM1,669604,false,false,874,image-keyboard-response,20
true,8,2,1,1,false,z,true,false,0.0-2.0-0.29-0.263-3.263,0,0,0,68,false,stim,false,0,652,2,0,1,72805,WMM1,671795,false,false,877,image-keyboard-response,21
true,8,1,1,1,true,z,false,true,0.0-2.0-0.29-0.264-3.264,0,0,0,90,false,stim,false,0,586,2,0,1,72805,WMM1,673903,false,false,880,image-keyboard-response,22
true,8,2,1,2,true,d,false,true,0.0-2.0-0.29-0.265-3.265,0,0,0,68,false,stim,false,1,480,2,0,0,72805,WMM1,675921,false,false,883,image-keyboard-response,23
true,8,1,1,1,true,z,false,true,0.0-2.0-0.29-0.266-3.266,0,0,0,90,false,stim,false,2,759,2,0,2,72805,WMM1,678224,false,false,886,image-keyboard-response,24
true,8,1,1,1,true,z,false,true,0.0-2.0-0.29-0.267-3.267,0,0,0,90,false,stim,false,0,480,2,0,1,72805,WMM1,680244,false,false,889,image-keyboard-response,25
true,8,1,1,1,true,z,false,false,0.0-2.0-0.29-0.268-3.268,0,0,0,90,false,stim,false,2,568,2,0,2,72805,WMM1,682350,false,true,892,image-keyboard-response,26
true,8,2,1,2,true,d,false,true,0.0-2.0-0.29-0.269-3.269,0,0,0,68,false,stim,false,1,545,2,0,0,72805,WMM1,684429,false,false,895,image-keyboard-response,27
true,8,2,1,2,true,d,false,true,0.0-2.0-0.30-0.270-3.270,0,0,0,68,false,stim,false,1,868,2,0,0,72805,WMM1,686830,false,false,898,image-keyboard-response,28
true,8,0,1,1,false,z,true,false,0.0-2.0-0.30-0.271-3.271,0,0,0,81,false,stim,false,2,635,2,0,2,72805,WMM1,689003,false,false,901,image-keyboard-response,29
true,8,2,1,1,false,z,false,false,0.0-2.0-0.30-0.272-3.272,0,0,0,68,false,stim,true,2,703,2,0,2,72805,WMM1,691245,false,false,904,image-keyboard-response,30
true,8,2,1,2,true,d,false,true,0.0-2.0-0.30-0.273-3.273,0,0,0,68,false,stim,false,1,581,2,0,0,72805,WMM1,693363,false,false,907,image-keyboard-response,31
true,8,2,1,2,true,d,false,true,0.0-2.0-0.30-0.274-3.274,0,0,0,68,false,stim,false,1,373,2,0,0,72805,WMM1,695276,false,false,910,image-keyboard-response,32
true,8,1,1,1,true,z,false,true,0.0-2.0-0.30-0.275-3.275,0,0,0,90,false,stim,false,0,2426,2,0,1,72805,WMM1,699229,false,false,913,image-keyboard-response,33
true,8,1,1,1,true,z,false,false,0.0-2.0-0.30-0.276-3.276,0,0,0,90,false,stim,false,0,483,2,0,1,72805,WMM1,701247,false,true,916,image-keyboard-response,34
true,8,1,1,1,true,z,false,true,0.0-2.0-0.30-0.277-3.277,0,0,0,90,false,stim,false,2,477,2,0,2,72805,WMM1,703260,false,false,919,image-keyboard-response,35
true,8,0,1,1,false,z,false,false,0.0-2.0-0.30-0.278-3.278,0,0,0,81,false,stim,true,0,475,2,0,1,72805,WMM1,705259,false,false,922,image-keyboard-response,36
true,8,2,1,2,true,d,false,true,0.0-2.0-0.31-0.279-3.279,0,0,0,68,false,stim,false,1,569,2,0,0,72805,WMM1,707351,false,false,925,image-keyboard-response,37
true,9,1,2,2,false,d,false,false,0.0-2.0-0.31-0.280-3.280,0,0,0,90,true,stim,true,1,542,2,0,2,72805,WMM1,709424,false,false,928,image-keyboard-response,1
true,9,1,2,0,false,q,false,false,0.0-2.0-0.31-0.281-3.281,0,0,0,90,false,stim,true,1,476,2,0,1,72805,WMM1,711440,false,false,931,image-keyboard-response,2
true,9,0,2,2,false,d,true,false,0.0-2.0-0.31-0.282-3.282,0,0,0,81,false,stim,false,1,1804,2,0,2,72805,WMM1,714766,false,false,934,image-keyboard-response,3
true,9,2,2,0,false,q,true,false,0.0-2.0-0.31-0.283-3.283,0,0,0,68,false,stim,false,1,691,2,0,1,72805,WMM1,716993,false,false,937,image-keyboard-response,4
true,9,1,2,0,false,q,false,false,0.0-2.0-0.31-0.284-3.284,0,0,0,90,false,stim,true,1,899,2,0,1,72805,WMM1,719422,false,false,940,image-keyboard-response,5
true,9,2,2,1,false,z,false,false,0.0-2.0-0.31-0.285-3.285,0,0,0,68,false,stim,true,2,512,2,0,0,72805,WMM1,721475,false,false,943,image-keyboard-response,6
true,9,0,2,2,false,d,true,true,0.0-2.0-0.31-0.286-3.286,0,0,0,81,false,stim,false,1,586,2,0,2,72805,WMM1,723588,false,true,946,image-keyboard-response,7
true,9,2,2,1,false,z,false,false,0.0-2.0-0.31-0.287-3.287,0,0,0,68,false,stim,true,2,592,2,0,0,72805,WMM1,725715,false,false,949,image-keyboard-response,8
true,9,2,2,0,false,q,true,false,0.0-2.0-0.32-0.288-3.288,0,0,0,68,false,stim,false,1,904,2,0,1,72805,WMM1,728147,false,false,952,image-keyboard-response,9
true,9,0,2,1,false,z,true,false,0.0-2.0-0.32-0.289-3.289,0,0,0,81,false,stim,false,2,980,2,0,0,72805,WMM1,730664,false,false,955,image-keyboard-response,10
true,9,1,2,1,true,z,false,true,0.0-2.0-0.32-0.290-3.290,0,0,0,90,false,stim,false,2,573,2,0,0,72805,WMM1,732777,false,false,958,image-keyboard-response,11
true,9,1,2,1,true,z,false,true,0.0-2.0-0.32-0.291-3.291,0,0,0,90,false,stim,false,2,682,2,0,0,72805,WMM1,734984,false,false,961,image-keyboard-response,12
true,9,0,2,2,false,d,true,false,0.0-2.0-0.32-0.292-3.292,0,0,0,81,false,stim,false,1,624,2,0,2,72805,WMM1,737137,false,false,964,image-keyboard-response,13
true,9,0,2,2,false,d,true,false,0.0-2.0-0.32-0.293-3.293,0,0,0,81,false,stim,false,1,506,2,0,2,72805,WMM1,739170,false,false,967,image-keyboard-response,14
true,9,0,2,0,true,q,false,true,0.0-2.0-0.32-0.294-3.294,0,0,0,81,false,stim,false,1,897,2,0,1,72805,WMM1,741601,false,false,970,image-keyboard-response,15
true,9,0,2,0,true,q,false,true,0.0-2.0-0.32-0.295-3.295,0,0,0,81,false,stim,false,1,461,2,0,1,72805,WMM1,743604,false,false,973,image-keyboard-response,16
true,9,1,2,2,false,d,false,true,0.0-2.0-0.32-0.296-3.296,0,0,0,90,false,stim,true,1,534,2,0,2,72805,WMM1,745677,false,true,976,image-keyboard-response,17
true,9,1,2,2,false,d,false,false,0.0-2.0-0.33-0.297-3.297,0,0,0,90,false,stim,true,1,382,2,0,2,72805,WMM1,747585,false,false,979,image-keyboard-response,18
true,9,2,2,1,false,z,false,false,0.0-2.0-0.33-0.298-3.298,0,0,0,68,false,stim,true,2,805,2,0,0,72805,WMM1,749927,false,false,982,image-keyboard-response,19
true,9,0,2,0,true,q,false,true,0.0-2.0-0.33-0.299-3.299,0,0,0,81,false,stim,false,1,737,2,0,1,72805,WMM1,752199,false,false,985,image-keyboard-response,20
true,9,0,2,0,true,q,false,true,0.0-2.0-0.33-0.300-3.300,0,0,0,81,false,stim,false,1,359,2,0,1,72805,WMM1,754102,false,false,988,image-keyboard-response,21
true,9,1,2,1,true,z,false,true,0.0-2.0-0.33-0.301-3.301,0,0,0,90,false,stim,false,2,1169,2,0,0,72805,WMM1,756812,false,false,991,image-keyboard-response,22
true,9,2,2,2,true,d,false,true,0.0-2.0-0.33-0.302-3.302,0,0,0,68,false,stim,false,1,1728,2,0,2,72805,WMM1,760071,false,false,994,image-keyboard-response,23
true,9,1,2,1,true,z,false,true,0.0-2.0-0.33-0.303-3.303,0,0,0,90,false,stim,false,2,929,2,0,0,72805,WMM1,762533,false,false,997,image-keyboard-response,24
true,9,2,2,2,true,d,false,true,0.0-2.0-0.33-0.304-3.304,0,0,0,68,false,stim,false,1,593,2,0,2,72805,WMM1,764655,false,false,1000,image-keyboard-response,25
true,9,0,2,0,true,q,false,true,0.0-2.0-0.33-0.305-3.305,0,0,0,81,false,stim,false,1,638,2,1,1,72805,WMM1,766842,false,false,1003,image-keyboard-response,26
true,9,0,2,0,true,q,false,true,0.0-2.0-0.34-0.306-3.306,0,0,0,81,false,stim,false,1,408,2,1,1,72805,WMM1,768790,false,false,1006,image-keyboard-response,27
true,9,2,2,2,true,d,false,false,0.0-2.0-0.34-0.307-3.307,0,0,0,68,false,stim,false,1,384,2,0,2,72805,WMM1,770708,false,true,1009,image-keyboard-response,28
true,9,1,2,1,true,z,false,true,0.0-2.0-0.34-0.308-3.308,0,0,0,90,false,stim,false,2,503,2,0,0,72805,WMM1,772745,false,false,1012,image-keyboard-response,29
true,9,1,2,1,true,z,false,true,0.0-2.0-0.34-0.309-3.309,0,0,0,90,false,stim,false,2,396,2,0,0,72805,WMM1,774669,false,false,1015,image-keyboard-response,30
true,9,2,2,2,true,d,false,true,0.0-2.0-0.34-0.310-3.310,0,0,0,68,false,stim,false,1,871,2,0,2,72805,WMM1,777065,false,false,1018,image-keyboard-response,31
true,9,0,2,0,true,q,false,false,0.0-2.0-0.34-0.311-3.311,0,0,0,81,false,stim,false,1,598,2,1,1,72805,WMM1,779192,false,true,1021,image-keyboard-response,32
true,9,1,2,1,true,z,false,true,0.0-2.0-0.34-0.312-3.312,0,0,0,90,false,stim,false,2,567,2,0,0,72805,WMM1,781299,false,false,1024,image-keyboard-response,33
true,9,2,2,2,true,d,false,true,0.0-2.0-0.34-0.313-3.313,0,0,0,68,false,stim,false,1,518,2,0,2,72805,WMM1,783353,false,false,1027,image-keyboard-response,34
true,9,0,2,0,true,q,false,true,0.0-2.0-0.34-0.314-3.314,0,0,0,81,false,stim,false,1,572,2,1,1,72805,WMM1,785460,false,false,1030,image-keyboard-response,35
true,10,2,3,0,false,q,false,false,0.0-2.0-0.35-0.315-3.315,0,1,0,68,true,stim,true,2,470,2,0,2,72805,WMM1,787463,false,false,1033,image-keyboard-response,1
true,10,1,3,2,false,d,false,false,0.0-2.0-0.35-0.316-3.316,0,1,0,90,false,stim,true,1,752,2,0,0,72805,WMM1,789744,false,false,1036,image-keyboard-response,2
true,10,2,3,2,true,d,false,true,0.0-2.0-0.35-0.317-3.317,0,1,0,68,false,stim,false,1,774,2,0,0,72805,WMM1,792046,false,false,1039,image-keyboard-response,3
true,10,2,3,2,true,d,false,true,0.0-2.0-0.35-0.318-3.318,0,1,0,68,false,stim,false,1,570,2,0,0,72805,WMM1,794143,false,false,1042,image-keyboard-response,4
true,10,1,3,0,false,q,true,true,0.0-2.0-0.35-0.319-3.319,0,1,0,90,false,stim,false,2,414,2,0,2,72805,WMM1,796086,false,true,1045,image-keyboard-response,5
true,10,1,3,0,false,q,true,false,0.0-2.0-0.35-0.320-3.320,0,1,0,90,false,stim,false,2,491,2,0,2,72805,WMM1,798103,false,false,1048,image-keyboard-response,6
true,10,0,3,0,true,q,false,true,0.0-2.0-0.35-0.321-3.321,0,1,0,81,false,stim,false,0,530,2,1,1,72805,WMM1,800163,false,false,1051,image-keyboard-response,7
true,10,0,3,0,true,q,false,true,0.0-2.0-0.35-0.322-3.322,0,1,0,81,false,stim,false,0,361,2,1,1,72805,WMM1,802065,false,false,1054,image-keyboard-response,8
true,10,0,3,0,true,q,false,true,0.0-2.0-0.35-0.323-3.323,0,1,0,81,false,stim,false,0,556,2,1,1,72805,WMM1,804159,false,false,1057,image-keyboard-response,9
true,10,2,3,2,true,d,false,false,0.0-2.0-0.36-0.324-3.324,0,1,0,68,false,stim,false,1,572,2,0,0,72805,WMM1,806255,false,true,1060,image-keyboard-response,10
true,10,1,3,0,false,q,true,false,0.0-2.0-0.36-0.325-3.325,0,1,0,90,false,stim,false,2,2025,2,0,2,72805,WMM1,809807,false,false,1063,image-keyboard-response,11
true,10,0,3,0,true,q,false,true,0.0-2.0-0.36-0.326-3.326,0,1,0,81,false,stim,false,0,432,2,1,1,72805,WMM1,811775,false,false,1066,image-keyboard-response,12
true,10,2,3,0,false,q,false,true,0.0-2.0-0.36-0.327-3.327,0,1,0,68,false,stim,true,2,551,2,0,2,72805,WMM1,813853,false,true,1069,image-keyboard-response,13
true,10,0,3,0,true,q,false,true,0.0-2.0-0.36-0.328-3.328,0,1,0,81,false,stim,false,0,487,2,1,1,72805,WMM1,815871,false,false,1072,image-keyboard-response,14
true,10,1,3,2,false,d,false,false,0.0-2.0-0.36-0.329-3.329,0,1,0,90,false,stim,true,1,1201,2,0,0,72805,WMM1,818605,false,false,1075,image-keyboard-response,15
true,10,2,3,0,false,q,false,false,0.0-2.0-0.36-0.330-3.330,0,1,0,68,false,stim,true,2,470,2,0,2,72805,WMM1,820613,false,false,1078,image-keyboard-response,16
true,10,1,3,2,false,d,false,true,0.0-2.0-0.36-0.331-3.331,0,1,0,90,false,stim,true,1,1350,2,0,0,72805,WMM1,823492,false,true,1081,image-keyboard-response,17
true,10,0,3,0,true,q,false,false,0.0-2.0-0.36-0.332-3.332,0,1,0,81,false,stim,false,0,561,2,1,1,72805,WMM1,825584,false,true,1084,image-keyboard-response,18
true,10,0,3,0,true,q,false,true,0.0-2.0-0.37-0.333-3.333,0,1,0,81,false,stim,false,0,573,2,1,1,72805,WMM1,827697,false,false,1087,image-keyboard-response,19
true,10,0,3,0,true,q,false,true,0.0-2.0-0.37-0.334-3.334,0,1,0,81,false,stim,false,2,831,2,0,2,72805,WMM1,830055,false,false,1090,image-keyboard-response,20
true,10,1,3,2,false,d,false,false,0.0-2.0-0.37-0.335-3.335,0,1,0,90,false,stim,true,1,518,2,0,0,72805,WMM1,832102,false,false,1093,image-keyboard-response,21
true,10,0,3,0,true,q,false,true,0.0-2.0-0.37-0.336-3.336,0,1,0,81,false,stim,false,2,949,2,0,2,72805,WMM1,834592,false,false,1096,image-keyboard-response,22
true,10,0,3,0,true,q,false,true,0.0-2.0-0.37-0.337-3.337,0,1,0,81,false,stim,false,0,450,2,1,1,72805,WMM1,836574,false,false,1099,image-keyboard-response,23
true,10,0,3,0,true,q,false,true,0.0-2.0-0.37-0.338-3.338,0,1,0,81,false,stim,false,2,549,2,0,2,72805,WMM1,838652,false,false,1102,image-keyboard-response,24
true,10,0,3,2,false,d,true,false,0.0-2.0-0.37-0.339-3.339,0,1,0,81,false,stim,false,1,461,2,0,0,72805,WMM1,840644,false,false,1105,image-keyboard-response,25
true,10,2,3,2,true,d,false,false,0.0-2.0-0.37-0.340-3.340,0,1,0,68,false,stim,false,1,580,2,0,0,72805,WMM1,842762,false,true,1108,image-keyboard-response,26
true,10,0,3,0,true,q,false,true,0.0-2.0-0.37-0.341-3.341,0,1,0,81,false,stim,false,0,691,2,1,1,72805,WMM1,844994,false,false,1111,image-keyboard-response,27
true,10,0,3,0,true,q,false,false,0.0-2.0-0.38-0.342-3.342,0,1,0,81,false,stim,false,0,440,2,1,1,72805,WMM1,846963,false,true,1114,image-keyboard-response,28
true,10,0,3,0,true,q,false,true,0.0-2.0-0.38-0.343-3.343,0,1,0,81,false,stim,false,0,411,2,1,1,72805,WMM1,848914,false,false,1117,image-keyboard-response,29
true,10,1,3,0,false,q,true,false,0.0-2.0-0.38-0.344-3.344,0,1,0,90,false,stim,false,2,509,2,0,2,72805,WMM1,850953,false,false,1120,image-keyboard-response,30
true,10,0,3,0,true,q,false,true,0.0-2.0-0.38-0.345-3.345,0,1,0,81,false,stim,false,2,376,2,0,2,72805,WMM1,852860,false,false,1123,image-keyboard-response,31
true,10,0,3,0,true,q,false,true,0.0-2.0-0.38-0.346-3.346,0,1,0,81,false,stim,false,2,364,2,0,2,72805,WMM1,854762,false,false,1126,image-keyboard-response,32
true,10,1,3,2,false,d,false,false,0.0-2.0-0.38-0.347-3.347,0,1,0,90,false,stim,true,1,876,2,0,0,72805,WMM1,857178,false,false,1129,image-keyboard-response,33
true,10,0,3,0,true,q,false,true,0.0-2.0-0.38-0.348-3.348,0,1,0,81,false,stim,false,0,767,2,1,1,72805,WMM1,859491,false,false,1132,image-keyboard-response,34
true,10,2,3,2,true,d,false,true,0.0-2.0-0.38-0.349-3.349,0,1,0,68,false,stim,false,1,790,2,0,0,72805,WMM1,861813,false,false,1135,image-keyboard-response,35
true,10,2,3,2,true,d,false,true,0.0-2.0-0.38-0.350-3.350,0,1,0,68,false,stim,false,1,476,2,0,0,72805,WMM1,863820,false,false,1138,image-keyboard-response,36
true,10,0,3,0,true,q,false,true,0.0-2.0-0.39-0.351-3.351,0,1,0,81,false,stim,false,2,514,2,0,2,72805,WMM1,865876,false,false,1141,image-keyboard-response,37
true,10,2,3,2,true,d,false,true,0.0-2.0-0.39-0.352-3.352,0,1,0,68,false,stim,false,1,741,2,1,0,72805,WMM1,868144,false,false,1144,image-keyboard-response,38
true,10,2,3,2,true,d,false,true,0.0-2.0-0.39-0.353-3.353,0,1,0,68,false,stim,false,1,400,2,1,0,72805,WMM1,870082,false,false,1147,image-keyboard-response,39
true,10,0,3,0,true,q,false,true,0.0-2.0-0.39-0.354-3.354,0,1,0,81,false,stim,false,0,530,2,0,1,72805,WMM1,872154,false,false,1150,image-keyboard-response,40
true,10,2,3,2,true,d,false,true,0.0-2.0-0.39-0.355-3.355,0,1,0,68,false,stim,false,1,598,2,1,0,72805,WMM1,874281,false,false,1153,image-keyboard-response,41
true,10,0,3,0,true,q,false,true,0.0-2.0-0.39-0.356-3.356,0,1,0,81,false,stim,false,2,805,2,0,2,72805,WMM1,876628,false,false,1156,image-keyboard-response,42
true,10,0,3,0,true,q,false,true,0.0-2.0-0.39-0.357-3.357,0,1,0,81,false,stim,false,0,632,2,0,1,72805,WMM1,878794,false,false,1159,image-keyboard-response,43
true,10,2,3,0,false,q,false,false,0.0-2.0-0.39-0.358-3.358,0,1,0,68,false,stim,true,2,2143,2,0,2,72805,WMM1,882466,false,false,1162,image-keyboard-response,44
true,10,0,3,0,true,q,false,false,0.0-2.0-0.39-0.359-3.359,0,1,0,81,false,stim,false,0,510,2,0,1,72805,WMM1,884513,false,true,1165,image-keyboard-response,45
true,10,0,3,0,true,q,false,true,0.0-2.0-0.40-0.360-3.360,0,1,0,81,false,stim,false,2,415,2,0,2,72805,WMM1,886457,false,false,1168,image-keyboard-response,46
true,11,0,3,1,false,z,false,false,0.0-2.0-0.40-0.361-3.361,1,0,0,81,true,stim,true,0,390,2,0,1,72805,WMM1,888374,false,false,1171,image-keyboard-response,1
true,11,2,3,2,true,d,false,true,0.0-2.0-0.40-0.362-3.362,1,0,0,68,false,stim,false,2,500,2,1,0,72805,WMM1,890403,false,false,1174,image-keyboard-response,2
true,11,0,3,2,false,d,false,false,0.0-2.0-0.40-0.363-3.363,1,0,0,81,false,stim,true,0,690,2,0,2,72805,WMM1,892634,false,false,1177,image-keyboard-response,3
true,11,1,3,1,true,z,false,true,0.0-2.0-0.40-0.364-3.364,1,0,0,90,false,stim,false,0,414,2,0,1,72805,WMM1,894577,false,false,1180,image-keyboard-response,4
true,11,2,3,2,true,d,false,true,0.0-2.0-0.40-0.365-3.365,1,0,0,68,false,stim,false,2,581,2,1,0,72805,WMM1,896684,false,false,1183,image-keyboard-response,5
true,11,2,3,2,true,d,false,true,0.0-2.0-0.40-0.366-3.366,1,0,0,68,false,stim,false,2,483,2,1,0,72805,WMM1,898707,false,false,1186,image-keyboard-response,6
true,11,0,3,2,false,d,false,false,0.0-2.0-0.40-0.367-3.367,1,0,0,81,false,stim,true,0,855,2,0,2,72805,WMM1,901099,false,false,1189,image-keyboard-response,7
true,11,1,3,1,true,z,false,true,0.0-2.0-0.40-0.368-3.368,1,0,0,90,false,stim,false,0,561,2,0,1,72805,WMM1,903185,false,false,1192,image-keyboard-response,8
true,11,2,3,2,true,d,false,true,0.0-2.0-0.41-0.369-3.369,1,0,0,68,false,stim,false,2,699,2,1,0,72805,WMM1,905422,false,false,1195,image-keyboard-response,9
true,11,2,3,2,true,d,false,true,0.0-2.0-0.41-0.370-3.370,1,0,0,68,false,stim,false,2,571,2,1,0,72805,WMM1,907535,false,false,1198,image-keyboard-response,10
true,11,1,3,1,true,z,false,true,0.0-2.0-0.41-0.371-3.371,1,0,0,90,false,stim,false,0,850,2,0,1,72805,WMM1,909920,false,false,1201,image-keyboard-response,11
true,11,1,3,1,true,z,false,true,0.0-2.0-0.41-0.372-3.372,1,0,0,90,false,stim,false,0,380,2,0,1,72805,WMM1,911824,false,false,1204,image-keyboard-response,12
true,11,1,3,1,true,z,false,true,0.0-2.0-0.41-0.373-3.373,1,0,0,90,false,stim,false,0,622,2,0,1,72805,WMM1,913986,false,false,1207,image-keyboard-response,13
true,11,2,3,2,true,d,false,true,0.0-2.0-0.41-0.374-3.374,1,0,0,68,false,stim,false,2,681,2,1,0,72805,WMM1,916204,false,false,1210,image-keyboard-response,14
true,11,0,3,2,false,d,false,false,0.0-2.0-0.41-0.375-3.375,1,0,0,81,false,stim,true,0,757,2,0,2,72805,WMM1,918499,false,false,1213,image-keyboard-response,15
true,11,1,3,2,false,d,true,false,0.0-2.0-0.41-0.376-3.376,1,0,0,90,false,stim,false,0,618,2,0,2,72805,WMM1,920641,false,false,1216,image-keyboard-response,16
true,11,2,3,2,true,d,false,true,0.0-2.0-0.41-0.377-3.377,1,0,0,68,false,stim,false,0,380,2,0,2,72805,WMM1,922563,false,false,1219,image-keyboard-response,17
true,11,2,3,2,true,d,false,true,0.0-2.0-0.42-0.378-3.378,1,0,0,68,false,stim,false,2,613,2,1,0,72805,WMM1,924717,false,false,1222,image-keyboard-response,18
true,11,1,3,2,false,d,true,false,0.0-2.0-0.42-0.379-3.379,1,0,0,90,false,stim,false,2,723,2,1,0,72805,WMM1,926966,false,false,1225,image-keyboard-response,19
true,11,2,3,2,true,d,false,true,0.0-2.0-0.42-0.380-3.380,1,0,0,68,false,stim,false,0,508,2,0,2,72805,WMM1,929000,false,false,1228,image-keyboard-response,20
true,11,1,3,1,true,z,false,true,0.0-2.0-0.42-0.381-3.381,1,0,0,90,false,stim,false,0,997,2,0,1,72805,WMM1,931531,false,false,1231,image-keyboard-response,21
true,11,2,3,2,true,d,false,true,0.0-2.0-0.42-0.382-3.382,1,0,0,68,false,stim,false,0,2144,2,0,2,72805,WMM1,935207,false,false,1234,image-keyboard-response,22
true,11,1,3,1,true,z,false,true,0.0-2.0-0.42-0.383-3.383,1,0,0,90,false,stim,false,0,695,2,0,1,72805,WMM1,937439,false,false,1237,image-keyboard-response,23
true,11,2,3,2,true,d,false,true,0.0-2.0-0.42-0.384-3.384,1,0,0,68,false,stim,false,0,1105,2,0,2,72805,WMM1,940089,false,false,1240,image-keyboard-response,24
true,11,1,3,1,true,z,false,false,0.0-2.0-0.42-0.385-3.385,1,0,0,90,false,stim,false,0,761,2,0,1,72805,WMM1,942385,false,true,1243,image-keyboard-response,25
true,11,2,3,2,true,d,false,true,0.0-2.0-0.42-0.386-3.386,1,0,0,68,false,stim,false,2,1536,2,1,0,72805,WMM1,945459,false,false,1246,image-keyboard-response,26
true,11,2,3,2,true,d,false,true,0.0-2.0-0.43-0.387-3.387,1,0,0,68,false,stim,false,2,434,2,1,0,72805,WMM1,947437,false,false,1249,image-keyboard-response,27
true,11,1,3,1,true,z,false,true,0.0-2.0-0.43-0.388-3.388,1,0,0,90,false,stim,false,0,561,2,1,1,72805,WMM1,949524,false,false,1252,image-keyboard-response,28
true,11,2,3,2,true,d,false,true,0.0-2.0-0.43-0.389-3.389,1,0,0,68,false,stim,false,0,926,2,0,2,72805,WMM1,951991,false,false,1255,image-keyboard-response,29
true,11,2,3,2,true,d,false,true,0.0-2.0-0.43-0.390-3.390,1,0,0,68,false,stim,false,2,624,2,0,0,72805,WMM1,954147,false,false,1258,image-keyboard-response,30
true,11,2,3,2,true,d,false,true,0.0-2.0-0.43-0.391-3.391,1,0,0,68,false,stim,false,0,1094,2,0,2,72805,WMM1,956778,false,false,1261,image-keyboard-response,31
true,11,1,3,1,true,z,false,true,0.0-2.0-0.43-0.392-3.392,1,0,0,90,false,stim,false,0,397,2,1,1,72805,WMM1,958700,false,false,1264,image-keyboard-response,32
true,11,2,3,2,true,d,false,true,0.0-2.0-0.43-0.393-3.393,1,0,0,68,false,stim,false,2,460,2,0,0,72805,WMM1,960704,false,false,1267,image-keyboard-response,33
true,11,1,3,1,true,z,false,true,0.0-2.0-0.43-0.394-3.394,1,0,0,90,false,stim,false,0,692,2,1,1,72805,WMM1,962934,false,false,1270,image-keyboard-response,34
true,11,2,3,2,true,d,false,true,0.0-2.0-0.43-0.395-3.395,1,0,0,68,false,stim,false,0,475,2,0,2,72805,WMM1,964938,false,false,1273,image-keyboard-response,35
true,11,2,3,2,true,d,false,true,0.0-2.0-0.44-0.396-3.396,1,0,0,68,false,stim,false,0,462,2,0,2,72805,WMM1,966936,false,false,1276,image-keyboard-response,36
true,11,2,3,2,true,d,false,false,0.0-2.0-0.44-0.397-3.397,1,0,0,68,false,stim,false,2,600,2,0,0,72805,WMM1,969073,false,true,1279,image-keyboard-response,37
true,12,2,3,0,false,q,false,false,0.0-2.0-0.44-0.398-3.398,0,1,0,68,true,stim,true,2,616,2,0,2,72805,WMM1,971230,false,false,1282,image-keyboard-response,1
true,12,2,3,1,false,z,false,false,0.0-2.0-0.44-0.399-3.399,0,1,0,68,false,stim,true,2,379,2,0,0,72805,WMM1,973133,false,false,1285,image-keyboard-response,2
true,12,1,3,1,true,z,false,false,0.0-2.0-0.44-0.400-3.400,0,1,0,90,false,stim,false,1,557,2,1,1,72805,WMM1,975230,false,true,1288,image-keyboard-response,3
true,12,0,3,0,true,q,false,false,0.0-2.0-0.44-0.401-3.401,0,1,0,81,false,stim,false,2,613,2,0,2,72805,WMM1,977368,false,true,1291,image-keyboard-response,4
true,12,2,3,1,false,z,true,false,0.0-2.0-0.44-0.402-3.402,0,1,0,68,false,stim,false,1,583,2,1,1,72805,WMM1,979486,false,false,1294,image-keyboard-response,5
true,12,1,3,1,true,z,false,true,0.0-2.0-0.44-0.403-3.403,0,1,0,90,false,stim,false,2,734,2,0,0,72805,WMM1,981756,false,false,1297,image-keyboard-response,6
true,12,0,3,1,false,z,true,false,0.0-2.0-0.44-0.404-3.404,0,1,0,81,false,stim,false,1,580,2,1,1,72805,WMM1,983864,false,false,1300,image-keyboard-response,7
true,12,2,3,1,false,z,true,false,0.0-2.0-0.45-0.405-3.405,0,1,0,68,false,stim,false,1,550,2,1,1,72805,WMM1,985955,false,false,1303,image-keyboard-response,8
true,12,0,3,0,true,q,false,true,0.0-2.0-0.45-0.406-3.406,0,1,0,81,false,stim,false,2,679,2,0,2,72805,WMM1,988163,false,false,1306,image-keyboard-response,9
true,12,1,3,1,true,z,false,true,0.0-2.0-0.45-0.407-3.407,0,1,0,90,false,stim,false,2,999,2,0,0,72805,WMM1,990703,false,false,1309,image-keyboard-response,10
true,12,1,3,1,true,z,false,true,0.0-2.0-0.45-0.408-3.408,0,1,0,90,false,stim,false,1,442,2,1,1,72805,WMM1,992686,false,false,1312,image-keyboard-response,11
true,12,0,3,0,true,q,false,false,0.0-2.0-0.45-0.409-3.409,0,1,0,81,false,stim,false,2,415,2,0,2,72805,WMM1,994639,false,true,1315,image-keyboard-response,12
true,12,1,3,1,true,z,false,true,0.0-2.0-0.45-0.410-3.410,0,1,0,90,false,stim,false,2,478,2,0,0,72805,WMM1,996641,false,false,1318,image-keyboard-response,13
true,12,1,3,1,true,z,false,false,0.0-2.0-0.45-0.411-3.411,0,1,0,90,false,stim,false,2,814,2,0,0,72805,WMM1,998998,false,true,1321,image-keyboard-response,14
true,12,0,3,0,true,q,false,true,0.0-2.0-0.45-0.412-3.412,0,1,0,81,false,stim,false,2,936,2,0,2,72805,WMM1,1001459,false,false,1324,image-keyboard-response,15
true,12,1,3,1,true,z,false,false,0.0-2.0-0.45-0.413-3.413,0,1,0,90,false,stim,false,1,597,2,1,1,72805,WMM1,1003590,false,true,1327,image-keyboard-response,16
true,12,0,3,0,true,q,false,true,0.0-2.0-0.46-0.414-3.414,0,1,0,81,false,stim,false,2,555,2,0,2,72805,WMM1,1005688,false,false,1330,image-keyboard-response,17
true,12,2,3,1,false,z,true,false,0.0-2.0-0.46-0.415-3.415,0,1,0,68,false,stim,false,1,337,2,1,1,72805,WMM1,1007551,false,false,1333,image-keyboard-response,18
true,12,0,3,1,false,z,true,false,0.0-2.0-0.46-0.416-3.416,0,1,0,81,false,stim,false,1,420,2,1,1,72805,WMM1,1009514,false,false,1336,image-keyboard-response,19
true,12,0,3,0,true,q,false,true,0.0-2.0-0.46-0.417-3.417,0,1,0,81,false,stim,false,2,503,2,0,2,72805,WMM1,1011556,false,false,1339,image-keyboard-response,20
true,12,0,3,0,true,q,false,true,0.0-2.0-0.46-0.418-3.418,0,1,0,81,false,stim,false,2,460,2,0,2,72805,WMM1,1013554,false,false,1342,image-keyboard-response,21
true,12,1,3,1,true,z,false,true,0.0-2.0-0.46-0.419-3.419,0,1,0,90,false,stim,false,2,791,2,0,0,72805,WMM1,1015885,false,false,1345,image-keyboard-response,22
true,12,1,3,1,true,z,false,true,0.0-2.0-0.46-0.420-3.420,0,1,0,90,false,stim,false,1,430,2,1,1,72805,WMM1,1017843,false,false,1348,image-keyboard-response,23
true,12,1,3,1,true,z,false,true,0.0-2.0-0.46-0.421-3.421,0,1,0,90,false,stim,false,2,561,2,0,0,72805,WMM1,1019935,false,false,1351,image-keyboard-response,24
true,12,1,3,1,true,z,false,true,0.0-2.0-0.46-0.422-3.422,0,1,0,90,false,stim,false,2,493,2,0,0,72805,WMM1,1021963,false,false,1354,image-keyboard-response,25
true,12,1,3,1,true,z,false,true,0.0-2.0-0.47-0.423-3.423,0,1,0,90,false,stim,false,2,482,2,0,0,72805,WMM1,1023975,false,false,1357,image-keyboard-response,26
true,12,0,3,0,true,q,false,true,0.0-2.0-0.47-0.424-3.424,0,1,0,81,false,stim,false,2,1401,2,0,2,72805,WMM1,1026905,false,false,1360,image-keyboard-response,27
true,12,1,3,1,true,z,false,true,0.0-2.0-0.47-0.425-3.425,0,1,0,90,false,stim,false,1,524,2,1,1,72805,WMM1,1028967,false,false,1363,image-keyboard-response,28
true,12,1,3,1,true,z,false,true,0.0-2.0-0.47-0.426-3.426,0,1,0,90,false,stim,false,2,486,2,0,0,72805,WMM1,1030989,false,false,1366,image-keyboard-response,29
true,12,0,3,0,true,q,false,true,0.0-2.0-0.47-0.427-3.427,0,1,0,81,false,stim,false,2,927,2,0,2,72805,WMM1,1033445,false,false,1369,image-keyboard-response,30
true,12,0,3,0,true,q,false,true,0.0-2.0-0.47-0.428-3.428,0,1,0,81,false,stim,false,2,341,2,0,2,72805,WMM1,1035314,false,false,1372,image-keyboard-response,31
true,12,1,3,1,true,z,false,true,0.0-2.0-0.47-0.429-3.429,0,1,0,90,false,stim,false,1,747,2,0,1,72805,WMM1,1037600,false,false,1375,image-keyboard-response,32
true,12,1,3,1,true,z,false,true,0.0-2.0-0.47-0.430-3.430,0,1,0,90,false,stim,false,1,454,2,0,1,72805,WMM1,1039588,false,false,1378,image-keyboard-response,33
true,12,1,3,1,true,z,false,true,0.0-2.0-0.47-0.431-3.431,0,1,0,90,false,stim,false,2,698,2,0,0,72805,WMM1,1041810,false,false,1381,image-keyboard-response,34
true,12,1,3,1,true,z,false,false,0.0-2.0-0.48-0.432-3.432,0,1,0,90,false,stim,false,2,543,2,0,0,72805,WMM1,1043877,false,true,1384,image-keyboard-response,35
true,12,0,3,0,true,q,false,true,0.0-2.0-0.48-0.433-3.433,0,1,0,81,false,stim,false,2,1394,2,0,2,72805,WMM1,1046796,false,false,1387,image-keyboard-response,36
true,12,1,3,1,true,z,false,true,0.0-2.0-0.48-0.434-3.434,0,1,0,90,false,stim,false,2,1038,2,0,0,72805,WMM1,1049362,false,false,1390,image-keyboard-response,37
true,12,1,3,1,true,z,false,true,0.0-2.0-0.48-0.435-3.435,0,1,0,90,false,stim,false,1,575,2,0,1,72805,WMM1,1051479,false,false,1393,image-keyboard-response,38
true,13,1,4,2,false,d,false,false,0.0-2.0-0.48-0.436-3.436,0,0,0,90,true,stim,true,1,412,2,0,1,72805,WMM1,1053416,false,false,1396,image-keyboard-response,1
true,13,0,4,1,false,z,false,false,0.0-2.0-0.48-0.437-3.437,0,0,0,81,false,stim,true,0,1173,2,0,2,72805,WMM1,1056137,false,false,1399,image-keyboard-response,2
true,13,1,4,2,false,d,false,false,0.0-2.0-0.48-0.438-3.438,0,0,0,90,false,stim,true,1,592,2,0,1,72805,WMM1,1058254,false,false,1402,image-keyboard-response,3
true,13,1,4,0,false,q,false,false,0.0-2.0-0.48-0.439-3.439,0,0,0,90,false,stim,true,1,1105,2,0,0,72805,WMM1,1060889,false,false,1405,image-keyboard-response,4
true,13,0,4,1,false,z,false,false,0.0-2.0-0.48-0.440-3.440,0,0,0,81,false,stim,true,0,691,2,0,2,72805,WMM1,1063116,false,false,1408,image-keyboard-response,5
true,13,2,4,1,false,z,true,false,0.0-2.0-0.49-0.441-3.441,0,0,0,68,false,stim,false,0,556,2,0,2,72805,WMM1,1065199,false,false,1411,image-keyboard-response,6
true,13,0,4,0,true,q,false,true,0.0-2.0-0.49-0.442-3.442,0,0,0,81,false,stim,false,1,602,2,0,0,72805,WMM1,1067325,false,false,1414,image-keyboard-response,7
true,13,1,4,1,true,z,false,true,0.0-2.0-0.49-0.443-3.443,0,0,0,90,false,stim,false,0,763,2,0,2,72805,WMM1,1069627,false,false,1417,image-keyboard-response,8
true,13,0,4,0,true,q,false,true,0.0-2.0-0.49-0.444-3.444,0,0,0,81,false,stim,false,1,855,2,0,0,72805,WMM1,1072018,false,false,1420,image-keyboard-response,9
true,13,1,4,1,true,z,false,true,0.0-2.0-0.49-0.445-3.445,0,0,0,90,false,stim,false,0,662,2,0,2,72805,WMM1,1074205,false,false,1423,image-keyboard-response,10
true,13,2,4,2,true,d,false,true,0.0-2.0-0.49-0.446-3.446,0,0,0,68,false,stim,false,1,1206,2,0,1,72805,WMM1,1076950,false,false,1426,image-keyboard-response,11
true,13,1,4,0,false,q,false,false,0.0-2.0-0.49-0.447-3.447,0,0,0,90,false,stim,true,1,848,2,0,0,72805,WMM1,1079331,false,false,1429,image-keyboard-response,12
true,13,2,4,2,true,d,false,true,0.0-2.0-0.49-0.448-3.448,0,0,0,68,false,stim,false,1,534,2,0,1,72805,WMM1,1081408,false,false,1432,image-keyboard-response,13
true,13,2,4,2,true,d,false,true,0.0-2.0-0.49-0.449-3.449,0,0,0,68,false,stim,false,1,397,2,0,1,72805,WMM1,1083331,false,false,1435,image-keyboard-response,14
true,13,1,4,1,true,z,false,true,0.0-2.0-0.50-0.450-3.450,0,0,0,90,false,stim,false,0,1499,2,0,2,72805,WMM1,1086370,false,false,1438,image-keyboard-response,15
true,13,0,4,0,true,q,false,true,0.0-2.0-0.50-0.451-3.451,0,0,0,81,false,stim,false,1,593,2,0,0,72805,WMM1,1088487,false,false,1441,image-keyboard-response,16
true,13,0,4,0,true,q,false,true,0.0-2.0-0.50-0.452-3.452,0,0,0,81,false,stim,false,1,446,2,0,0,72805,WMM1,1090459,false,false,1444,image-keyboard-response,17
true,13,2,4,2,true,d,false,true,0.0-2.0-0.50-0.453-3.453,0,0,0,68,false,stim,false,1,836,2,0,1,72805,WMM1,1092831,false,false,1447,image-keyboard-response,18
true,13,0,4,0,true,q,false,true,0.0-2.0-0.50-0.454-3.454,0,0,0,81,false,stim,false,1,1123,2,0,0,72805,WMM1,1095495,false,false,1450,image-keyboard-response,19
true,13,1,4,1,true,z,false,true,0.0-2.0-0.50-0.455-3.455,0,0,0,90,false,stim,false,0,629,2,0,2,72805,WMM1,1097653,false,false,1453,image-keyboard-response,20
true,13,2,4,2,true,d,false,true,0.0-2.0-0.50-0.456-3.456,0,0,0,68,false,stim,false,1,497,2,1,1,72805,WMM1,1099681,false,false,1456,image-keyboard-response,21
true,13,1,4,1,true,z,false,true,0.0-2.0-0.50-0.457-3.457,0,0,0,90,false,stim,false,0,973,2,1,2,72805,WMM1,1102197,false,false,1459,image-keyboard-response,22
true,13,2,4,2,true,d,false,true,0.0-2.0-0.50-0.458-3.458,0,0,0,68,false,stim,false,1,501,2,1,1,72805,WMM1,1104223,false,false,1462,image-keyboard-response,23
true,13,1,4,0,false,q,false,false,0.0-2.0-0.51-0.459-3.459,0,0,0,90,false,stim,true,1,2277,2,1,0,72805,WMM1,1108041,false,false,1465,image-keyboard-response,24
true,13,2,4,2,true,d,false,true,0.0-2.0-0.51-0.460-3.460,0,0,0,68,false,stim,false,1,578,2,1,1,72805,WMM1,1110163,false,false,1468,image-keyboard-response,25
true,13,1,4,1,true,z,false,true,0.0-2.0-0.51-0.461-3.461,0,0,0,90,false,stim,false,0,771,2,1,2,72805,WMM1,1112473,false,false,1471,image-keyboard-response,26
true,13,1,4,1,true,z,false,true,0.0-2.0-0.51-0.462-3.462,0,0,0,90,false,stim,false,0,552,2,1,2,72805,WMM1,1114556,false,false,1474,image-keyboard-response,27
true,13,0,4,0,true,q,false,false,0.0-2.0-0.51-0.463-3.463,0,0,0,81,false,stim,false,1,608,2,1,0,72805,WMM1,1116693,false,true,1477,image-keyboard-response,28
true,13,0,4,0,true,q,false,true,0.0-2.0-0.51-0.464-3.464,0,0,0,81,false,stim,false,1,442,2,1,0,72805,WMM1,1118676,false,false,1480,image-keyboard-response,29
true,13,2,4,2,true,d,false,true,0.0-2.0-0.51-0.465-3.465,0,0,0,68,false,stim,false,1,724,2,1,1,72805,WMM1,1120937,false,false,1483,image-keyboard-response,30
true,14,2,0,2,true,d,false,true,0.0-2.0-0.51-0.466-3.466,1,1,1,68,true,stim,false,2,945,2,1,1,72805,WMM1,1221351,false,false,1583,image-keyboard-response,1
true,14,1,0,1,true,z,false,true,0.0-2.0-0.51-0.467-3.467,1,1,1,90,false,stim,false,1,1022,2,1,2,72805,WMM1,1223905,false,false,1586,image-keyboard-response,2
true,14,2,0,2,true,d,false,true,0.0-2.0-0.52-0.468-3.468,1,1,1,68,false,stim,false,2,431,2,1,1,72805,WMM1,1225874,false,false,1589,image-keyboard-response,3
true,14,1,0,1,true,z,false,true,0.0-2.0-0.52-0.469-3.469,1,1,1,90,false,stim,false,1,747,2,1,2,72805,WMM1,1228151,false,false,1592,image-keyboard-response,4
true,14,0,0,0,true,q,false,true,0.0-2.0-0.52-0.470-3.470,1,1,1,81,false,stim,false,0,699,2,1,0,72805,WMM1,1230384,false,false,1595,image-keyboard-response,5
true,14,0,0,0,true,q,false,true,0.0-2.0-0.52-0.471-3.471,1,1,1,81,false,stim,false,0,411,2,1,0,72805,WMM1,1232325,false,false,1598,image-keyboard-response,6
true,14,1,0,1,true,z,false,false,0.0-2.0-0.52-0.472-3.472,1,1,1,90,false,stim,false,1,673,2,1,2,72805,WMM1,1234534,false,true,1601,image-keyboard-response,7
true,14,0,0,0,true,q,false,true,0.0-2.0-0.52-0.473-3.473,1,1,1,81,false,stim,false,0,656,2,1,0,72805,WMM1,1236729,false,false,1604,image-keyboard-response,8
true,14,2,0,2,true,d,false,true,0.0-2.0-0.52-0.474-3.474,1,1,1,68,false,stim,false,2,543,2,1,1,72805,WMM1,1238797,false,false,1607,image-keyboard-response,9
true,14,2,0,2,true,d,false,false,0.0-2.0-0.52-0.475-3.475,1,1,1,68,false,stim,false,2,456,2,1,1,72805,WMM1,1240790,false,true,1610,image-keyboard-response,10
true,14,2,0,1,false,z,true,false,0.0-2.0-0.52-0.476-3.476,1,1,1,68,false,stim,false,1,485,2,1,2,72805,WMM1,1242798,false,false,1613,image-keyboard-response,11
true,14,1,0,1,true,z,false,true,0.0-2.0-0.53-0.477-3.477,1,1,1,90,false,stim,false,1,530,2,1,2,72805,WMM1,1244864,false,false,1616,image-keyboard-response,12
true,14,1,0,1,true,z,false,false,0.0-2.0-0.53-0.478-3.478,1,1,1,90,false,stim,false,1,474,2,1,2,72805,WMM1,1246869,false,true,1619,image-keyboard-response,13
true,14,0,0,0,true,q,false,true,0.0-2.0-0.53-0.479-3.479,1,1,1,81,false,stim,false,0,552,2,1,0,72805,WMM1,1248945,false,false,1622,image-keyboard-response,14
true,14,0,0,0,true,q,false,true,0.0-2.0-0.53-0.480-3.480,1,1,1,81,false,stim,false,0,415,2,1,0,72805,WMM1,1250889,false,false,1625,image-keyboard-response,15
true,14,2,0,2,true,d,false,false,0.0-2.0-0.53-0.481-3.481,1,1,1,68,false,stim,false,2,532,2,1,1,72805,WMM1,1252946,false,true,1628,image-keyboard-response,16
true,14,1,0,2,false,d,true,false,0.0-2.0-0.53-0.482-3.482,1,1,1,90,false,stim,false,2,440,2,1,1,72805,WMM1,1254914,false,false,1631,image-keyboard-response,17
true,14,0,0,0,true,q,false,true,0.0-2.0-0.53-0.483-3.483,1,1,1,81,false,stim,false,0,798,2,1,0,72805,WMM1,1257242,false,false,1634,image-keyboard-response,18
true,14,2,0,2,true,d,false,true,0.0-2.0-0.53-0.484-3.484,1,1,1,68,false,stim,false,2,555,2,1,1,72805,WMM1,1259339,false,false,1637,image-keyboard-response,19
true,14,1,0,1,true,z,false,true,0.0-2.0-0.53-0.485-3.485,1,1,1,90,false,stim,false,1,448,2,1,2,72805,WMM1,1261321,false,false,1640,image-keyboard-response,20
true,14,0,0,0,true,q,false,false,0.0-2.0-0.54-0.486-3.486,1,1,1,81,false,stim,false,0,1054,2,1,0,72805,WMM1,1263907,false,true,1643,image-keyboard-response,21
true,14,2,0,2,true,d,false,true,0.0-2.0-0.54-0.487-3.487,1,1,1,68,false,stim,false,2,487,2,1,1,72805,WMM1,1265930,false,false,1646,image-keyboard-response,22
true,14,0,0,0,true,q,false,true,0.0-2.0-0.54-0.488-3.488,1,1,1,81,false,stim,false,0,609,2,0,0,72805,WMM1,1268072,false,false,1649,image-keyboard-response,23
true,14,1,0,1,true,z,false,true,0.0-2.0-0.54-0.489-3.489,1,1,1,90,false,stim,false,1,741,2,0,2,72805,WMM1,1270344,false,false,1652,image-keyboard-response,24
true,14,2,0,2,true,d,false,true,0.0-2.0-0.54-0.490-3.490,1,1,1,68,false,stim,false,2,990,2,0,1,72805,WMM1,1272875,false,false,1655,image-keyboard-response,25
true,14,0,0,0,true,q,false,true,0.0-2.0-0.54-0.491-3.491,1,1,1,81,false,stim,false,0,1361,2,0,0,72805,WMM1,1275764,false,false,1658,image-keyboard-response,26
true,14,2,0,2,true,d,false,true,0.0-2.0-0.54-0.492-3.492,1,1,1,68,false,stim,false,2,1073,2,0,1,72805,WMM1,1278377,false,false,1661,image-keyboard-response,27
true,14,1,0,1,true,z,false,true,0.0-2.0-0.54-0.493-3.493,1,1,1,90,false,stim,false,1,1128,2,0,2,72805,WMM1,1281031,false,false,1664,image-keyboard-response,28
true,14,1,0,1,true,z,false,true,0.0-2.0-0.54-0.494-3.494,1,1,1,90,false,stim,false,1,1297,2,0,2,72805,WMM1,1283860,false,false,1667,image-keyboard-response,29
true,14,0,0,0,true,q,false,true,0.0-2.0-0.55-0.495-3.495,1,1,1,81,false,stim,false,0,2269,2,0,0,72805,WMM1,1287672,false,false,1670,image-keyboard-response,30
true,14,2,0,2,true,d,false,true,0.0-2.0-0.55-0.496-3.496,1,1,1,68,false,stim,false,2,1199,2,0,1,72805,WMM1,1290413,false,false,1673,image-keyboard-response,31
true,14,2,0,2,true,d,false,false,0.0-2.0-0.55-0.497-3.497,1,1,1,68,false,stim,false,2,374,2,0,1,72805,WMM1,1292327,false,true,1676,image-keyboard-response,32
true,15,0,2,1,false,z,false,false,0.0-2.0-0.55-0.498-3.498,0,0,0,81,true,stim,true,0,814,2,0,0,72805,WMM1,1294667,false,false,1679,image-keyboard-response,1
true,15,1,2,2,false,d,false,false,0.0-2.0-0.55-0.499-3.499,0,0,0,90,false,stim,true,1,526,2,0,2,72805,WMM1,1296721,false,false,1682,image-keyboard-response,2
true,15,1,2,2,false,d,false,false,0.0-2.0-0.55-0.500-3.500,0,0,0,90,false,stim,true,1,644,2,0,2,72805,WMM1,1298898,false,false,1685,image-keyboard-response,3
true,15,0,2,0,true,q,false,true,0.0-2.0-0.55-0.501-3.501,0,0,0,81,false,stim,false,2,580,2,0,1,72805,WMM1,1301005,false,false,1688,image-keyboard-response,4
true,15,2,2,1,false,z,true,false,0.0-2.0-0.55-0.502-3.502,0,0,0,68,false,stim,false,0,749,2,0,0,72805,WMM1,1303294,false,false,1691,image-keyboard-response,5
true,15,2,2,2,true,d,false,true,0.0-2.0-0.55-0.503-3.503,0,0,0,68,false,stim,false,1,846,2,0,2,72805,WMM1,1305669,false,false,1694,image-keyboard-response,6
true,15,1,2,1,true,z,false,true,0.0-2.0-0.56-0.504-3.504,0,0,0,90,false,stim,false,0,787,2,0,0,72805,WMM1,1307991,false,false,1697,image-keyboard-response,7
true,15,0,2,0,true,q,false,true,0.0-2.0-0.56-0.505-3.505,0,0,0,81,false,stim,false,2,581,2,0,1,72805,WMM1,1310104,false,false,1700,image-keyboard-response,8
true,15,1,2,1,true,z,false,true,0.0-2.0-0.56-0.506-3.506,0,0,0,90,false,stim,false,0,781,2,0,0,72805,WMM1,1312424,false,false,1703,image-keyboard-response,9
true,15,2,2,2,true,d,false,true,0.0-2.0-0.56-0.507-3.507,0,0,0,68,false,stim,false,1,999,2,0,2,72805,WMM1,1314961,false,false,1706,image-keyboard-response,10
true,15,2,2,2,true,d,false,false,0.0-2.0-0.56-0.508-3.508,0,0,0,68,false,stim,false,1,519,2,0,2,72805,WMM1,1317013,false,true,1709,image-keyboard-response,11
true,15,1,2,1,true,z,false,true,0.0-2.0-0.56-0.509-3.509,0,0,0,90,false,stim,false,0,2091,2,0,0,72805,WMM1,1320646,false,false,1712,image-keyboard-response,12
true,15,2,2,2,true,d,false,true,0.0-2.0-0.56-0.510-3.510,0,0,0,68,false,stim,false,1,624,2,0,2,72805,WMM1,1322799,false,false,1715,image-keyboard-response,13
true,15,0,2,0,true,q,false,true,0.0-2.0-0.56-0.511-3.511,0,0,0,81,false,stim,false,2,418,2,0,1,72805,WMM1,1324752,false,false,1718,image-keyboard-response,14
true,15,0,2,0,true,q,false,true,0.0-2.0-0.56-0.512-3.512,0,0,0,81,false,stim,false,2,366,2,0,1,72805,WMM1,1326660,false,false,1721,image-keyboard-response,15
true,15,0,2,0,true,q,false,true,0.0-2.0-0.57-0.513-3.513,0,0,0,81,false,stim,false,2,345,2,0,1,72805,WMM1,1328538,false,false,1724,image-keyboard-response,16
true,15,0,2,0,true,q,false,true,0.0-2.0-0.57-0.514-3.514,0,0,0,81,false,stim,false,2,324,2,0,1,72805,WMM1,1330398,false,false,1727,image-keyboard-response,17
true,15,1,2,1,true,z,false,true,0.0-2.0-0.57-0.515-3.515,0,0,0,90,false,stim,false,0,796,2,0,0,72805,WMM1,1332729,false,false,1730,image-keyboard-response,18
true,15,1,2,1,true,z,false,true,0.0-2.0-0.57-0.516-3.516,0,0,0,90,false,stim,false,0,373,2,0,0,72805,WMM1,1334628,false,false,1733,image-keyboard-response,19
true,15,1,2,1,true,z,false,true,0.0-2.0-0.57-0.517-3.517,0,0,0,90,false,stim,false,0,337,2,0,0,72805,WMM1,1336491,false,false,1736,image-keyboard-response,20
true,15,2,2,2,true,d,false,true,0.0-2.0-0.57-0.518-3.518,0,0,0,68,false,stim,false,1,839,2,0,2,72805,WMM1,1338872,false,false,1739,image-keyboard-response,21
true,15,2,2,2,true,d,false,true,0.0-2.0-0.57-0.519-3.519,0,0,0,68,false,stim,false,1,381,2,0,2,72805,WMM1,1340785,false,false,1742,image-keyboard-response,22
true,15,0,2,0,true,q,false,false,0.0-2.0-0.57-0.520-3.520,0,0,0,81,false,stim,false,2,1585,2,0,1,72805,WMM1,1343910,false,true,1745,image-keyboard-response,23
true,15,1,2,2,false,d,false,false,0.0-2.0-0.57-0.521-3.521,0,0,0,90,false,stim,true,1,1176,2,0,2,72805,WMM1,1346620,false,false,1748,image-keyboard-response,24
true,15,2,2,2,true,d,false,true,0.0-2.0-0.58-0.522-3.522,0,0,0,68,false,stim,false,1,440,2,0,2,72805,WMM1,1348604,false,false,1751,image-keyboard-response,25
true,15,1,2,1,true,z,false,true,0.0-2.0-0.58-0.523-3.523,0,0,0,90,false,stim,false,0,632,2,0,0,72805,WMM1,1350776,false,false,1754,image-keyboard-response,26
true,15,1,2,1,true,z,false,true,0.0-2.0-0.58-0.524-3.524,0,0,0,90,false,stim,false,0,874,2,0,0,72805,WMM1,1353189,false,false,1757,image-keyboard-response,27
true,15,0,2,0,true,q,false,true,0.0-2.0-0.58-0.525-3.525,0,0,0,81,false,stim,false,2,806,2,0,1,72805,WMM1,1355520,false,false,1760,image-keyboard-response,28
true,15,0,2,0,true,q,false,true,0.0-2.0-0.58-0.526-3.526,0,0,0,81,false,stim,false,2,389,2,0,1,72805,WMM1,1357443,false,false,1763,image-keyboard-response,29
true,15,2,2,2,true,d,false,true,0.0-2.0-0.58-0.527-3.527,0,0,0,68,false,stim,false,1,750,2,0,2,72805,WMM1,1359735,false,false,1766,image-keyboard-response,30
true,16,0,1,1,false,z,false,true,0.0-2.0-0.58-0.528-3.528,0,0,0,81,true,stim,true,0,844,2,0,1,72805,WMM1,1362108,false,true,1769,image-keyboard-response,1
true,16,2,1,0,false,q,false,false,0.0-2.0-0.58-0.529-3.529,0,0,0,68,false,stim,true,2,1979,2,0,2,72805,WMM1,1365624,false,false,1772,image-keyboard-response,2
true,16,1,1,2,false,d,false,false,0.0-2.0-0.58-0.530-3.530,0,0,0,90,false,stim,true,1,389,2,0,0,72805,WMM1,1367553,false,false,1775,image-keyboard-response,3
true,16,1,1,2,false,d,false,false,0.0-2.0-0.59-0.531-3.531,0,0,0,90,false,stim,true,1,796,2,0,0,72805,WMM1,1369880,false,false,1778,image-keyboard-response,4
true,16,1,1,0,false,q,true,false,0.0-2.0-0.59-0.532-3.532,0,0,0,90,false,stim,false,2,653,2,0,2,72805,WMM1,1372058,false,false,1781,image-keyboard-response,5
true,16,0,1,1,false,z,false,false,0.0-2.0-0.59-0.533-3.533,0,0,0,81,false,stim,true,0,750,2,0,1,72805,WMM1,1374334,false,false,1784,image-keyboard-response,6
true,16,2,1,1,false,z,true,false,0.0-2.0-0.59-0.534-3.534,0,0,0,68,false,stim,false,0,683,2,0,1,72805,WMM1,1376546,false,false,1787,image-keyboard-response,7
true,16,0,1,0,true,q,false,true,0.0-2.0-0.59-0.535-3.535,0,0,0,81,false,stim,false,2,571,2,0,2,72805,WMM1,1378654,false,false,1790,image-keyboard-response,8
true,16,1,1,1,true,z,false,true,0.0-2.0-0.59-0.536-3.536,0,0,0,90,false,stim,false,0,592,2,0,1,72805,WMM1,1380777,false,false,1793,image-keyboard-response,9
true,16,2,1,2,true,d,false,false,0.0-2.0-0.59-0.537-3.537,0,0,0,68,false,stim,false,1,960,2,0,0,72805,WMM1,1383263,false,true,1796,image-keyboard-response,10
true,16,1,1,2,false,d,false,false,0.0-2.0-0.59-0.538-3.538,0,0,0,90,false,stim,true,1,591,2,0,0,72805,WMM1,1385396,false,false,1799,image-keyboard-response,11
true,16,0,1,0,true,q,false,true,0.0-2.0-0.59-0.539-3.539,0,0,0,81,false,stim,false,2,948,2,0,2,72805,WMM1,1387867,false,false,1802,image-keyboard-response,12
true,16,0,1,0,true,q,false,true,0.0-2.0-0.60-0.540-3.540,0,0,0,81,false,stim,false,2,672,2,0,2,72805,WMM1,1390075,false,false,1805,image-keyboard-response,13
true,16,0,1,0,true,q,false,true,0.0-2.0-0.60-0.541-3.541,0,0,0,81,false,stim,false,2,519,2,0,2,72805,WMM1,1392123,false,false,1808,image-keyboard-response,14
true,16,1,1,1,true,z,false,true,0.0-2.0-0.60-0.542-3.542,0,0,0,90,false,stim,false,0,851,2,0,1,72805,WMM1,1394514,false,false,1811,image-keyboard-response,15
true,16,0,1,2,false,d,true,false,0.0-2.0-0.60-0.543-3.543,0,0,0,81,false,stim,false,1,484,2,0,0,72805,WMM1,1396528,false,false,1814,image-keyboard-response,16
true,16,1,1,1,true,z,false,false,0.0-2.0-0.60-0.544-3.544,0,0,0,90,false,stim,false,0,607,2,0,1,72805,WMM1,1398670,false,true,1817,image-keyboard-response,17
true,16,1,1,2,false,d,false,false,0.0-2.0-0.60-0.545-3.545,0,0,0,90,false,stim,true,1,1138,2,0,0,72805,WMM1,1401331,false,false,1820,image-keyboard-response,18
true,16,0,1,0,true,q,false,true,0.0-2.0-0.60-0.546-3.546,0,0,0,81,false,stim,false,2,575,2,0,2,72805,WMM1,1403449,false,false,1823,image-keyboard-response,19
true,16,2,1,2,true,d,false,true,0.0-2.0-0.60-0.547-3.547,0,0,0,68,false,stim,false,1,617,2,0,0,72805,WMM1,1405592,false,false,1826,image-keyboard-response,20
true,16,1,1,1,true,z,false,true,0.0-2.0-0.60-0.548-3.548,0,0,0,90,false,stim,false,0,1024,2,0,1,72805,WMM1,1408158,false,false,1829,image-keyboard-response,21
true,16,1,1,1,true,z,false,true,0.0-2.0-0.61-0.549-3.549,0,0,0,90,false,stim,false,0,537,2,0,1,72805,WMM1,1410231,false,false,1832,image-keyboard-response,22
true,16,0,1,0,true,q,false,true,0.0-2.0-0.61-0.550-3.550,0,0,0,81,false,stim,false,2,369,2,0,2,72805,WMM1,1412144,false,false,1835,image-keyboard-response,23
true,16,2,1,2,true,d,false,true,0.0-2.0-0.61-0.551-3.551,0,0,0,68,false,stim,false,1,1043,2,0,0,72805,WMM1,1414716,false,false,1838,image-keyboard-response,24
true,16,1,1,1,true,z,false,true,0.0-2.0-0.61-0.552-3.552,0,0,0,90,false,stim,false,0,784,2,0,1,72805,WMM1,1417028,false,false,1841,image-keyboard-response,25
true,16,1,1,1,true,z,false,true,0.0-2.0-0.61-0.553-3.553,0,0,0,90,false,stim,false,0,979,2,0,1,72805,WMM1,1419544,false,false,1844,image-keyboard-response,26
true,16,2,1,2,true,d,false,true,0.0-2.0-0.61-0.554-3.554,0,0,0,68,false,stim,false,1,827,2,0,0,72805,WMM1,1421912,false,false,1847,image-keyboard-response,27
true,16,0,1,0,true,q,false,true,0.0-2.0-0.61-0.555-3.555,0,0,0,81,false,stim,false,2,804,2,0,2,72805,WMM1,1424248,false,false,1850,image-keyboard-response,28
true,16,0,1,0,true,q,false,true,0.0-2.0-0.61-0.556-3.556,0,0,0,81,false,stim,false,2,468,2,0,2,72805,WMM1,1426241,false,false,1853,image-keyboard-response,29
true,16,2,1,2,true,d,false,true,0.0-2.0-0.61-0.557-3.557,0,0,0,68,false,stim,false,1,908,2,0,0,72805,WMM1,1428682,false,false,1856,image-keyboard-response,30
true,16,2,1,2,true,d,false,true,0.0-2.0-0.62-0.558-3.558,0,0,0,68,false,stim,false,1,397,2,0,0,72805,WMM1,1430611,false,false,1859,image-keyboard-response,31
true,16,2,1,2,true,d,false,true,0.0-2.0-0.62-0.559-3.559,0,0,0,68,false,stim,false,1,380,2,0,0,72805,WMM1,1432534,false,false,1862,image-keyboard-response,32
true,16,2,1,2,true,d,false,true,0.0-2.0-0.62-0.560-3.560,0,0,0,68,false,stim,false,1,358,2,0,0,72805,WMM1,1434433,false,false,1865,image-keyboard-response,33
true,16,1,1,1,true,z,false,true,0.0-2.0-0.62-0.561-3.561,0,0,0,90,false,stim,false,0,855,2,0,1,72805,WMM1,1436830,false,false,1868,image-keyboard-response,34
true,17,0,2,2,false,d,false,false,0.0-2.0-0.62-0.562-3.562,0,0,0,81,true,stim,true,0,563,2,0,2,72805,WMM1,1438917,false,false,1871,image-keyboard-response,1
true,17,0,2,2,false,d,false,false,0.0-2.0-0.62-0.563-3.563,0,0,0,81,false,stim,true,0,480,2,0,2,72805,WMM1,1440933,false,false,1874,image-keyboard-response,2
true,17,2,2,2,true,d,false,false,0.0-2.0-0.62-0.564-3.564,0,0,0,68,false,stim,false,0,828,2,0,2,72805,WMM1,1443302,false,true,1877,image-keyboard-response,3
true,17,1,2,0,false,q,false,false,0.0-2.0-0.62-0.565-3.565,0,0,0,90,false,stim,true,1,615,2,0,1,72805,WMM1,1445448,false,false,1880,image-keyboard-response,4
true,17,1,2,0,false,q,false,false,0.0-2.0-0.62-0.566-3.566,0,0,0,90,false,stim,true,1,337,2,0,1,72805,WMM1,1447321,false,false,1883,image-keyboard-response,5
true,17,2,2,1,false,z,false,false,0.0-2.0-0.63-0.567-3.567,0,0,0,68,false,stim,true,2,838,2,0,0,72805,WMM1,1449703,false,false,1886,image-keyboard-response,6
true,17,2,2,0,false,q,true,false,0.0-2.0-0.63-0.568-3.568,0,0,0,68,false,stim,false,1,402,2,0,1,72805,WMM1,1451646,false,false,1889,image-keyboard-response,7
true,17,0,2,1,false,z,true,false,0.0-2.0-0.63-0.569-3.569,0,0,0,81,false,stim,false,2,844,2,0,0,72805,WMM1,1454028,false,false,1892,image-keyboard-response,8
true,17,2,2,2,true,d,false,true,0.0-2.0-0.63-0.570-3.570,0,0,0,68,false,stim,false,0,1129,2,0,2,72805,WMM1,1456693,false,false,1895,image-keyboard-response,9
true,17,0,2,0,true,q,false,true,0.0-2.0-0.63-0.571-3.571,0,0,0,81,false,stim,false,1,518,2,0,1,72805,WMM1,1458741,false,false,1898,image-keyboard-response,10
true,17,1,2,1,true,z,false,true,0.0-2.0-0.63-0.572-3.572,0,0,0,90,false,stim,false,2,617,2,0,0,72805,WMM1,1460908,false,false,1901,image-keyboard-response,11
true,17,0,2,0,true,q,false,true,0.0-2.0-0.63-0.573-3.573,0,0,0,81,false,stim,false,1,562,2,0,1,72805,WMM1,1463001,false,false,1904,image-keyboard-response,12
true,17,2,2,2,true,d,false,true,0.0-2.0-0.63-0.574-3.574,0,0,0,68,false,stim,false,0,883,2,0,2,72805,WMM1,1465418,false,false,1907,image-keyboard-response,13
true,17,2,2,2,true,d,false,true,0.0-2.0-0.63-0.575-3.575,0,0,0,68,false,stim,false,0,421,2,0,2,72805,WMM1,1467375,false,false,1910,image-keyboard-response,14
true,17,1,2,1,true,z,false,true,0.0-2.0-0.64-0.576-3.576,0,0,0,90,false,stim,false,2,514,2,0,0,72805,WMM1,1469428,false,false,1913,image-keyboard-response,15
true,17,0,2,0,true,q,false,true,0.0-2.0-0.64-0.577-3.577,0,0,0,81,false,stim,false,1,614,2,0,1,72805,WMM1,1471565,false,false,1916,image-keyboard-response,16
true,17,1,2,1,true,z,false,true,0.0-2.0-0.64-0.578-3.578,0,0,0,90,false,stim,false,2,398,2,0,0,72805,WMM1,1473493,false,false,1919,image-keyboard-response,17
true,17,2,2,2,true,d,false,true,0.0-2.0-0.64-0.579-3.579,0,0,0,68,false,stim,false,0,877,2,0,2,72805,WMM1,1475900,false,false,1922,image-keyboard-response,18
true,17,0,2,0,true,q,false,true,0.0-2.0-0.64-0.580-3.580,0,0,0,81,false,stim,false,1,719,2,0,1,72805,WMM1,1478142,false,false,1925,image-keyboard-response,19
true,17,2,2,2,true,d,false,true,0.0-2.0-0.64-0.581-3.581,0,0,0,68,false,stim,false,0,855,2,0,2,72805,WMM1,1480538,false,false,1928,image-keyboard-response,20
true,17,2,2,2,true,d,false,true,0.0-2.0-0.64-0.582-3.582,0,0,0,68,false,stim,false,0,875,2,0,2,72805,WMM1,1482959,false,false,1931,image-keyboard-response,21
true,17,1,2,1,true,z,false,true,0.0-2.0-0.64-0.583-3.583,0,0,0,90,false,stim,false,2,728,2,0,0,72805,WMM1,1485212,false,false,1934,image-keyboard-response,22
true,17,0,2,0,true,q,false,true,0.0-2.0-0.64-0.584-3.584,0,0,0,81,false,stim,false,1,784,2,0,1,72805,WMM1,1487527,false,false,1937,image-keyboard-response,23
true,17,0,2,0,true,q,false,true,0.0-2.0-0.65-0.585-3.585,0,0,0,81,false,stim,false,1,431,2,0,1,72805,WMM1,1489495,false,false,1940,image-keyboard-response,24
true,17,2,2,2,true,d,false,true,0.0-2.0-0.65-0.586-3.586,0,0,0,68,false,stim,false,0,1865,2,0,2,72805,WMM1,1492888,false,false,1943,image-keyboard-response,25
true,17,1,2,1,true,z,false,true,0.0-2.0-0.65-0.587-3.587,0,0,0,90,false,stim,false,2,1747,2,0,0,72805,WMM1,1496171,false,false,1946,image-keyboard-response,26
true,17,0,2,0,true,q,false,true,0.0-2.0-0.65-0.588-3.588,0,0,0,81,false,stim,false,1,784,2,0,1,72805,WMM1,1498489,false,false,1949,image-keyboard-response,27
true,17,1,2,1,true,z,false,false,0.0-2.0-0.65-0.589-3.589,0,0,0,90,false,stim,false,2,1852,2,0,0,72805,WMM1,1501875,false,true,1952,image-keyboard-response,28
true,17,2,2,1,false,z,false,false,0.0-2.0-0.65-0.590-3.590,0,0,0,68,false,stim,true,2,683,2,0,0,72805,WMM1,1504084,false,false,1955,image-keyboard-response,29
true,17,2,2,2,true,d,false,true,0.0-2.0-0.65-0.591-3.591,0,0,0,68,false,stim,false,0,557,2,0,2,72805,WMM1,1506180,false,false,1958,image-keyboard-response,30
true,18,0,1,2,false,d,false,false,0.0-2.0-0.65-0.592-3.592,0,0,0,81,true,stim,true,0,589,2,0,1,72805,WMM1,1508293,false,false,1961,image-keyboard-response,1
true,18,2,1,0,false,q,false,false,0.0-2.0-0.65-0.593-3.593,0,0,0,68,false,stim,true,2,561,2,0,2,72805,WMM1,1510384,false,false,1964,image-keyboard-response,2
true,18,2,1,0,false,q,false,false,0.0-2.0-0.66-0.594-3.594,0,0,0,68,false,stim,true,2,543,2,0,2,72805,WMM1,1512467,false,false,1967,image-keyboard-response,3
true,18,0,1,0,true,q,false,true,0.0-2.0-0.66-0.595-3.595,0,0,0,81,false,stim,false,2,526,2,0,2,72805,WMM1,1514530,false,false,1970,image-keyboard-response,4
true,18,1,1,2,false,d,false,false,0.0-2.0-0.66-0.596-3.596,0,0,0,90,false,stim,true,1,703,2,0,0,72805,WMM1,1516766,false,false,1973,image-keyboard-response,5
true,18,1,1,2,false,d,true,false,0.0-2.0-0.66-0.597-3.597,0,0,0,90,false,stim,false,0,903,2,0,1,72805,WMM1,1519207,false,false,1976,image-keyboard-response,6
true,18,0,1,0,true,q,false,true,0.0-2.0-0.66-0.598-3.598,0,0,0,81,false,stim,false,2,625,2,0,2,72805,WMM1,1521370,false,false,1979,image-keyboard-response,7
true,18,2,1,2,true,d,false,true,0.0-2.0-0.66-0.599-3.599,0,0,0,68,false,stim,false,0,523,2,0,1,72805,WMM1,1523427,false,false,1982,image-keyboard-response,8
true,18,2,1,2,true,d,false,true,0.0-2.0-0.66-0.600-3.600,0,0,0,68,false,stim,false,0,456,2,0,1,72805,WMM1,1525420,false,false,1985,image-keyboard-response,9
true,18,2,1,2,true,d,false,false,0.0-2.0-0.66-0.601-3.601,0,0,0,68,false,stim,false,1,503,2,0,0,72805,WMM1,1527443,false,true,1988,image-keyboard-response,10
true,18,0,1,2,false,d,true,false,0.0-2.0-0.66-0.602-3.602,0,0,0,81,false,stim,false,1,542,2,0,0,72805,WMM1,1529526,false,false,1991,image-keyboard-response,11
true,18,1,1,2,false,d,false,false,0.0-2.0-0.67-0.603-3.603,0,0,0,90,false,stim,true,1,514,2,0,0,72805,WMM1,1531579,false,false,1994,image-keyboard-response,12
true,18,2,1,2,true,d,false,true,0.0-2.0-0.67-0.604-3.604,0,0,0,68,false,stim,false,0,680,2,0,1,72805,WMM1,1533784,false,false,1997,image-keyboard-response,13
true,18,0,1,0,true,q,false,true,0.0-2.0-0.67-0.605-3.605,0,0,0,81,false,stim,false,2,489,2,0,2,72805,WMM1,1535812,false,false,2000,image-keyboard-response,14
true,18,0,1,0,true,q,false,true,0.0-2.0-0.67-0.606-3.606,0,0,0,81,false,stim,false,2,326,2,0,2,72805,WMM1,1537671,false,false,2003,image-keyboard-response,15
true,18,2,1,2,true,d,false,true,0.0-2.0-0.67-0.607-3.607,0,0,0,68,false,stim,false,1,613,2,0,0,72805,WMM1,1539828,false,false,2006,image-keyboard-response,16
true,18,0,1,0,true,q,false,true,0.0-2.0-0.67-0.608-3.608,0,0,0,81,false,stim,false,2,440,2,0,2,72805,WMM1,1541795,false,false,2009,image-keyboard-response,17
true,18,2,1,2,true,d,false,true,0.0-2.0-0.67-0.609-3.609,0,0,0,68,false,stim,false,1,438,2,0,0,72805,WMM1,1543764,false,false,2012,image-keyboard-response,18
true,18,2,1,2,true,d,false,true,0.0-2.0-0.67-0.610-3.610,0,0,0,68,false,stim,false,0,322,2,0,1,72805,WMM1,1545626,false,false,2015,image-keyboard-response,19
true,18,2,1,2,true,d,false,true,0.0-2.0-0.67-0.611-3.611,0,0,0,68,false,stim,false,0,400,2,0,1,72805,WMM1,1547564,false,false,2018,image-keyboard-response,20
true,18,0,1,0,true,q,false,true,0.0-2.0-0.68-0.612-3.612,0,0,0,81,false,stim,false,2,987,2,0,2,72805,WMM1,1550091,false,false,2021,image-keyboard-response,21
true,18,0,1,0,true,q,false,true,0.0-2.0-0.68-0.613-3.613,0,0,0,81,false,stim,false,2,435,2,0,2,72805,WMM1,1552058,false,false,2024,image-keyboard-response,22
true,18,2,1,2,true,d,false,false,0.0-2.0-0.68-0.614-3.614,0,0,0,68,false,stim,false,1,1378,2,0,0,72805,WMM1,1554963,false,true,2027,image-keyboard-response,23
true,18,0,1,0,true,q,false,true,0.0-2.0-0.68-0.615-3.615,0,0,0,81,false,stim,false,2,984,2,0,2,72805,WMM1,1557489,false,false,2030,image-keyboard-response,24
true,18,2,1,2,true,d,false,true,0.0-2.0-0.68-0.616-3.616,0,0,0,68,false,stim,false,0,995,2,0,1,72805,WMM1,1560019,false,false,2033,image-keyboard-response,25
true,18,2,1,2,true,d,false,true,0.0-2.0-0.68-0.617-3.617,0,0,0,68,false,stim,false,1,392,2,0,0,72805,WMM1,1561937,false,false,2036,image-keyboard-response,26
true,18,2,1,2,true,d,false,true,0.0-2.0-0.68-0.618-3.618,0,0,0,68,false,stim,false,0,640,2,0,1,72805,WMM1,1564104,false,false,2039,image-keyboard-response,27
true,18,2,1,2,true,d,false,true,0.0-2.0-0.68-0.619-3.619,0,0,0,68,false,stim,false,1,483,2,0,0,72805,WMM1,1566126,false,false,2042,image-keyboard-response,28
true,18,0,1,2,false,d,false,false,0.0-2.0-0.68-0.620-3.620,0,0,0,81,false,stim,true,0,455,2,0,1,72805,WMM1,1568119,false,false,2045,image-keyboard-response,29
true,18,0,1,0,true,q,false,true,0.0-2.0-0.69-0.621-3.621,0,0,0,81,false,stim,false,2,473,2,0,2,72805,WMM1,1570117,false,false,2048,image-keyboard-response,30
true,19,2,2,1,false,z,false,false,0.0-2.0-0.69-0.622-3.622,0,0,0,68,true,stim,true,2,810,2,0,0,72805,WMM1,1572454,false,false,2051,image-keyboard-response,1
true,19,2,2,0,false,q,false,false,0.0-2.0-0.69-0.623-3.623,0,0,0,68,false,stim,true,2,538,2,0,1,72805,WMM1,1574531,false,false,2054,image-keyboard-response,2
true,19,0,2,2,false,d,false,false,0.0-2.0-0.69-0.624-3.624,0,0,0,81,false,stim,true,0,589,2,0,2,72805,WMM1,1576663,false,false,2057,image-keyboard-response,3
true,19,0,2,0,true,q,false,true,0.0-2.0-0.69-0.625-3.625,0,0,0,81,false,stim,false,2,466,2,0,1,72805,WMM1,1578671,false,false,2060,image-keyboard-response,4
true,19,2,2,2,true,d,false,true,0.0-2.0-0.69-0.626-3.626,0,0,0,68,false,stim,false,0,483,2,0,2,72805,WMM1,1580688,false,false,2063,image-keyboard-response,5
true,19,1,2,1,true,z,false,false,0.0-2.0-0.69-0.627-3.627,0,0,0,90,false,stim,false,2,645,2,0,0,72805,WMM1,1582869,false,true,2066,image-keyboard-response,6
true,19,0,2,0,true,q,false,true,0.0-2.0-0.69-0.628-3.628,0,0,0,81,false,stim,false,2,523,2,0,1,72805,WMM1,1584927,false,false,2069,image-keyboard-response,7
true,19,2,2,1,false,z,false,false,0.0-2.0-0.69-0.629-3.629,0,0,0,68,false,stim,true,2,939,2,0,0,72805,WMM1,1587393,false,false,2072,image-keyboard-response,8
true,19,0,2,0,true,q,false,false,0.0-2.0-0.70-0.630-3.630,0,0,0,81,false,stim,false,2,900,2,0,1,72805,WMM1,1589834,false,true,2075,image-keyboard-response,9
true,19,0,2,0,true,q,false,true,0.0-2.0-0.70-0.631-3.631,0,0,0,81,false,stim,false,2,398,2,0,1,72805,WMM1,1591772,false,false,2078,image-keyboard-response,10
true,19,2,2,2,true,d,false,true,0.0-2.0-0.70-0.632-3.632,0,0,0,68,false,stim,false,0,863,2,0,2,72805,WMM1,1594178,false,false,2081,image-keyboard-response,11
true,19,2,2,2,true,d,false,true,0.0-2.0-0.70-0.633-3.633,0,0,0,68,false,stim,false,0,401,2,0,2,72805,WMM1,1596115,false,false,2084,image-keyboard-response,12
true,19,0,2,1,false,z,true,false,0.0-2.0-0.70-0.634-3.634,0,0,0,81,false,stim,false,2,888,2,0,0,72805,WMM1,1598542,false,false,2087,image-keyboard-response,13
true,19,1,2,1,true,z,false,true,0.0-2.0-0.70-0.635-3.635,0,0,0,90,false,stim,false,2,685,2,0,0,72805,WMM1,1600759,false,false,2090,image-keyboard-response,14
true,19,1,2,1,true,z,false,true,0.0-2.0-0.70-0.636-3.636,0,0,0,90,false,stim,false,2,536,2,0,0,72805,WMM1,1602830,false,false,2093,image-keyboard-response,15
true,19,0,2,0,true,q,false,true,0.0-2.0-0.70-0.637-3.637,0,0,0,81,false,stim,false,2,548,2,0,1,72805,WMM1,1604903,false,false,2096,image-keyboard-response,16
true,19,2,2,2,true,d,false,true,0.0-2.0-0.70-0.638-3.638,0,0,0,68,false,stim,false,0,865,2,0,2,72805,WMM1,1607300,false,false,2099,image-keyboard-response,17
