answered,blockNum,choice,condition,corResp,correct,correct_response,explo,fb,internal_node_id,isStable_1,isStable_2,isStable_3,key_press,newBlock,part,persev,persevResp,rt,sessNum,stableAS,stimulus,subject,task,time_elapsed,training,trap,trial_index,trial_type,trialsInBlock
true,1,1,0,2,false,d,true,false,0.0-2.0-0.0-0.0-3.0,0,0,0,90,true,stim,false,-1,2201.600000023842,3,0,0,73276,WMM2,141758,false,false,109,image-keyboard-response,1
true,1,1,0,1,true,z,false,true,0.0-2.0-0.0-0.1-3.1,0,0,0,90,false,stim,false,-1,642.4000000953674,3,0,1,73276,WMM2,143918,false,false,112,image-keyboard-response,2
true,1,1,0,0,false,q,true,false,0.0-2.0-0.0-0.2-3.2,0,0,0,90,false,stim,false,-1,595.7999999523163,3,0,2,73276,WMM2,146030,false,false,115,image-keyboard-response,3
true,1,1,0,1,true,z,false,true,0.0-2.0-0.0-0.3-3.3,0,0,0,90,false,stim,false,-1,798.2000000476837,3,0,1,73276,WMM2,148334,false,false,118,image-keyboard-response,4
true,1,0,0,2,false,d,true,false,0.0-2.0-0.0-0.4-3.4,0,0,0,81,false,stim,false,-1,442.5,3,0,0,73276,WMM2,150286,false,false,121,image-keyboard-response,5
true,1,2,0,2,true,d,false,true,0.0-2.0-0.0-0.5-3.5,0,0,0,68,false,stim,false,-1,1037.7000000476837,3,0,0,73276,WMM2,152846,false,false,124,image-keyboard-response,6
true,1,0,0,0,true,q,false,true,0.0-2.0-0.0-0.6-3.6,0,0,0,81,false,stim,false,-1,1252.8999999761581,3,0,2,73276,WMM2,155614,false,false,127,image-keyboard-response,7
true,1,0,0,0,true,q,false,false,0.0-2.0-0.0-0.7-3.7,0,0,0,81,false,stim,false,-1,1058.2000000476837,3,0,2,73276,WMM2,158190,false,true,130,image-keyboard-response,8
true,1,1,0,1,true,z,false,true,0.0-2.0-0.0-0.8-3.8,0,0,0,90,false,stim,false,-1,922.5,3,0,1,73276,WMM2,160622,false,false,133,image-keyboard-response,9
true,1,0,0,0,true,q,false,true,0.0-2.0-0.1-0.9-3.9,0,0,0,81,false,stim,false,-1,1505.5,3,0,2,73276,WMM2,163646,false,false,136,image-keyboard-response,10
true,1,2,0,2,true,d,false,true,0.0-2.0-0.1-0.10-3.10,0,0,0,68,false,stim,false,-1,683.7999999523163,3,0,0,73276,WMM2,165854,false,false,139,image-keyboard-response,11
true,1,0,0,0,true,q,false,true,0.0-2.0-0.1-0.11-3.11,0,0,0,81,false,stim,false,-1,929.1000000238419,3,0,2,73276,WMM2,168302,false,false,142,image-keyboard-response,12
true,1,1,0,1,true,z,false,true,0.0-2.0-0.1-0.12-3.12,0,0,0,90,false,stim,false,-1,704.7000000476837,3,0,1,73276,WMM2,170510,false,false,145,image-keyboard-response,13
true,1,2,0,2,true,d,false,true,0.0-2.0-0.1-0.13-3.13,0,0,0,68,false,stim,false,-1,535.5999999046326,3,0,0,73276,WMM2,172574,false,false,148,image-keyboard-response,14
true,1,1,0,2,false,d,true,false,0.0-2.0-0.1-0.14-3.14,0,0,0,90,false,stim,false,-1,617.1999999284744,3,0,0,73276,WMM2,174718,false,false,151,image-keyboard-response,15
true,1,1,0,1,true,z,false,true,0.0-2.0-0.1-0.15-3.15,0,0,0,90,false,stim,false,-1,590.6000000238419,3,0,1,73276,WMM2,176830,false,false,154,image-keyboard-response,16
true,1,0,0,0,true,q,false,true,0.0-2.0-0.1-0.16-3.16,0,0,0,81,false,stim,false,-1,856.6999999284744,3,0,2,73276,WMM2,179198,false,false,157,image-keyboard-response,17
true,1,1,0,1,true,z,false,true,0.0-2.0-0.1-0.17-3.17,0,0,0,90,false,stim,false,-1,1093.2999999523163,3,0,1,73276,WMM2,181806,false,false,160,image-keyboard-response,18
true,1,0,0,0,true,q,false,true,0.0-2.0-0.2-0.18-3.18,0,0,0,81,false,stim,false,-1,816.7000000476837,3,0,2,73276,WMM2,184126,false,false,163,image-keyboard-response,19
true,1,1,0,1,true,z,false,true,0.0-2.0-0.2-0.19-3.19,0,0,0,90,false,stim,false,-1,1086.0999999046326,3,0,1,73276,WMM2,186734,false,false,166,image-keyboard-response,20
true,1,2,0,2,true,d,false,true,0.0-2.0-0.2-0.20-3.20,0,0,0,68,false,stim,false,-1,467.7000000476837,3,0,0,73276,WMM2,188718,false,false,169,image-keyboard-response,21
true,1,0,0,0,true,q,false,true,0.0-2.0-0.2-0.21-3.21,0,0,0,81,false,stim,false,-1,725.0999999046326,3,0,2,73276,WMM2,190958,false,false,172,image-keyboard-response,22
true,1,2,0,2,true,d,false,true,0.0-2.0-0.2-0.22-3.22,0,0,0,68,false,stim,false,-1,1171.3999999761581,3,0,0,73276,WMM2,193646,false,false,175,image-keyboard-response,23
true,1,2,0,2,true,d,false,true,0.0-2.0-0.2-0.23-3.23,0,0,0,68,false,stim,false,-1,536.0999999046326,3,1,0,73276,WMM2,195694,false,false,178,image-keyboard-response,24
true,1,0,0,0,true,q,false,true,0.0-2.0-0.2-0.24-3.24,0,0,0,81,false,stim,false,-1,777.2000000476837,3,0,2,73276,WMM2,197982,false,false,181,image-keyboard-response,25
true,1,1,0,1,true,z,false,true,0.0-2.0-0.2-0.25-3.25,0,0,0,90,false,stim,false,-1,692.6999999284744,3,1,1,73276,WMM2,200190,false,false,184,image-keyboard-response,26
true,1,1,0,1,true,z,false,true,0.0-2.0-0.2-0.26-3.26,0,0,0,90,false,stim,false,-1,629.8999999761581,3,1,1,73276,WMM2,202334,false,false,187,image-keyboard-response,27
true,1,0,0,0,true,q,false,true,0.0-2.0-0.3-0.27-3.27,0,0,0,81,false,stim,false,-1,1000.3999999761581,3,0,2,73276,WMM2,204846,false,false,190,image-keyboard-response,28
true,1,0,0,0,true,q,false,true,0.0-2.0-0.3-0.28-3.28,0,0,0,81,false,stim,false,-1,900.6000000238419,3,0,2,73276,WMM2,207262,false,false,193,image-keyboard-response,29
true,1,2,0,2,true,d,false,false,0.0-2.0-0.3-0.29-3.29,0,0,0,68,false,stim,false,-1,1336.3000000715256,3,1,0,73276,WMM2,210126,false,true,196,image-keyboard-response,30
true,1,1,0,1,true,z,false,true,0.0-2.0-0.3-0.30-3.30,0,0,0,90,false,stim,false,-1,783.8999999761581,3,1,1,73276,WMM2,212414,false,false,199,image-keyboard-response,31
true,1,2,0,2,true,d,false,true,0.0-2.0-0.3-0.31-3.31,0,0,0,68,false,stim,false,-1,707.6999999284744,3,1,0,73276,WMM2,214638,false,false,202,image-keyboard-response,32
true,1,0,0,0,true,q,false,true,0.0-2.0-0.3-0.32-3.32,0,0,0,81,false,stim,false,-1,830.9000000953674,3,0,2,73276,WMM2,216974,false,false,205,image-keyboard-response,33
true,2,2,4,2,true,d,false,true,0.0-2.0-0.3-0.33-3.33,1,1,0,68,true,stim,false,2,825.8999999761581,3,1,0,73276,WMM2,219310,false,false,208,image-keyboard-response,1
true,2,1,4,1,true,z,false,true,0.0-2.0-0.3-0.34-3.34,1,1,0,90,false,stim,false,1,1143.8000000715256,3,1,1,73276,WMM2,221966,false,false,211,image-keyboard-response,2
true,2,1,4,1,true,z,false,true,0.0-2.0-0.3-0.35-3.35,1,1,0,90,false,stim,false,1,729.5,3,1,1,73276,WMM2,224206,false,false,214,image-keyboard-response,3
true,2,0,4,0,true,q,false,true,0.0-2.0-0.4-0.36-3.36,1,1,0,81,false,stim,false,0,834.7000000476837,3,0,2,73276,WMM2,226558,false,false,217,image-keyboard-response,4
true,2,0,4,0,true,q,false,true,0.0-2.0-0.4-0.37-3.37,1,1,0,81,false,stim,false,0,757.8999999761581,3,0,2,73276,WMM2,228829,false,false,220,image-keyboard-response,5
true,2,2,4,2,true,d,false,false,0.0-2.0-0.4-0.38-3.38,1,1,0,68,false,stim,false,2,717.1000000238419,3,1,0,73276,WMM2,231069,false,true,223,image-keyboard-response,6
true,2,0,4,0,true,q,false,true,0.0-2.0-0.4-0.39-3.39,1,1,0,81,false,stim,false,0,640.8000000715256,3,0,2,73276,WMM2,233229,false,false,226,image-keyboard-response,7
true,2,2,4,2,true,d,false,false,0.0-2.0-0.4-0.40-3.40,1,1,0,68,false,stim,false,2,530.3000000715256,3,1,0,73276,WMM2,235278,false,true,229,image-keyboard-response,8
true,2,1,4,1,true,z,false,true,0.0-2.0-0.4-0.41-3.41,1,1,0,90,false,stim,false,1,1142.8999999761581,3,1,1,73276,WMM2,237933,false,false,232,image-keyboard-response,9
true,2,1,4,1,true,z,false,true,0.0-2.0-0.4-0.42-3.42,1,1,0,90,false,stim,false,1,660.8999999761581,3,1,1,73276,WMM2,240109,false,false,235,image-keyboard-response,10
true,2,1,4,1,true,z,false,true,0.0-2.0-0.4-0.43-3.43,1,1,0,90,false,stim,false,1,642.1000000238419,3,1,1,73276,WMM2,242269,false,false,238,image-keyboard-response,11
true,2,1,4,2,false,d,true,false,0.0-2.0-0.4-0.44-3.44,1,1,0,90,false,stim,false,2,1187.7000000476837,3,1,0,73276,WMM2,244973,false,false,241,image-keyboard-response,12
true,2,0,4,0,true,q,false,true,0.0-2.0-0.5-0.45-3.45,1,1,0,81,false,stim,false,0,869.0,3,0,2,73276,WMM2,247357,false,false,244,image-keyboard-response,13
true,2,1,4,1,true,z,false,true,0.0-2.0-0.5-0.46-3.46,1,1,0,90,false,stim,false,1,904.5999999046326,3,1,1,73276,WMM2,249789,false,false,247,image-keyboard-response,14
true,2,1,4,2,false,d,true,true,0.0-2.0-0.5-0.47-3.47,1,1,0,90,false,stim,false,2,586.0999999046326,3,1,0,73276,WMM2,251901,false,true,250,image-keyboard-response,15
true,2,1,4,1,true,z,false,true,0.0-2.0-0.5-0.48-3.48,1,1,0,90,false,stim,false,1,741.5,3,1,1,73276,WMM2,254157,false,false,253,image-keyboard-response,16
true,2,0,4,0,true,q,false,true,0.0-2.0-0.5-0.49-3.49,1,1,0,81,false,stim,false,0,590.7999999523163,3,0,2,73276,WMM2,256269,false,false,256,image-keyboard-response,17
true,2,1,4,1,true,z,false,true,0.0-2.0-0.5-0.50-3.50,1,1,0,90,false,stim,false,1,592.0,3,1,1,73276,WMM2,258365,false,false,259,image-keyboard-response,18
true,2,1,4,2,false,d,true,false,0.0-2.0-0.5-0.51-3.51,1,1,0,90,false,stim,false,2,567.3000000715256,3,1,0,73276,WMM2,260445,false,false,262,image-keyboard-response,19
true,2,1,4,2,false,d,true,false,0.0-2.0-0.5-0.52-3.52,1,1,0,90,false,stim,false,2,556.5999999046326,3,1,0,73276,WMM2,262525,false,false,265,image-keyboard-response,20
true,2,0,4,0,true,q,false,true,0.0-2.0-0.5-0.53-3.53,1,1,0,81,false,stim,false,0,1796.0,3,0,2,73276,WMM2,265837,false,false,268,image-keyboard-response,21
true,2,1,4,1,true,z,false,true,0.0-2.0-0.6-0.54-3.54,1,1,0,90,false,stim,false,1,847.5,3,1,1,73276,WMM2,268189,false,false,271,image-keyboard-response,22
true,2,0,4,0,true,q,false,true,0.0-2.0-0.6-0.55-3.55,1,1,0,81,false,stim,false,0,825.3999999761581,3,0,2,73276,WMM2,270525,false,false,274,image-keyboard-response,23
true,2,0,4,0,true,q,false,true,0.0-2.0-0.6-0.56-3.56,1,1,0,81,false,stim,false,0,690.8000000715256,3,0,2,73276,WMM2,272733,false,false,277,image-keyboard-response,24
true,2,0,4,2,false,d,true,true,0.0-2.0-0.6-0.57-3.57,1,1,0,81,false,stim,false,2,504.0,3,1,0,73276,WMM2,274749,false,true,280,image-keyboard-response,25
true,2,1,4,1,true,z,false,true,0.0-2.0-0.6-0.58-3.58,1,1,0,90,false,stim,false,1,475.39999997615814,3,1,1,73276,WMM2,276749,false,false,283,image-keyboard-response,26
true,2,0,4,2,false,d,true,true,0.0-2.0-0.6-0.59-3.59,1,1,0,81,false,stim,false,2,526.5999999046326,3,1,0,73276,WMM2,278797,false,true,286,image-keyboard-response,27
true,2,1,4,1,true,z,false,true,0.0-2.0-0.6-0.60-3.60,1,1,0,90,false,stim,false,1,875.8000000715256,3,1,1,73276,WMM2,281182,false,false,289,image-keyboard-response,28
true,2,0,4,2,false,d,true,false,0.0-2.0-0.6-0.61-3.61,1,1,0,81,false,stim,false,2,887.0,3,1,0,73276,WMM2,283581,false,false,292,image-keyboard-response,29
true,2,0,4,0,true,q,false,true,0.0-2.0-0.6-0.62-3.62,1,1,0,81,false,stim,false,0,734.8000000715256,3,0,2,73276,WMM2,285837,false,false,295,image-keyboard-response,30
true,2,1,4,1,true,z,false,true,0.0-2.0-0.7-0.63-3.63,1,1,0,90,false,stim,false,1,498.10000002384186,3,1,1,73276,WMM2,287853,false,false,298,image-keyboard-response,31
true,2,1,4,2,false,d,true,false,0.0-2.0-0.7-0.64-3.64,1,1,0,90,false,stim,false,2,502.40000009536743,3,1,0,73276,WMM2,289869,false,false,301,image-keyboard-response,32
true,2,2,4,2,true,d,false,true,0.0-2.0-0.7-0.65-3.65,1,1,0,68,false,stim,false,2,1258.6000000238419,3,1,0,73276,WMM2,292638,false,false,304,image-keyboard-response,33
true,2,2,4,2,true,d,false,true,0.0-2.0-0.7-0.66-3.66,1,1,0,68,false,stim,false,2,918.1000000238419,3,1,0,73276,WMM2,295069,false,false,307,image-keyboard-response,34
true,2,0,4,0,true,q,false,true,0.0-2.0-0.7-0.67-3.67,1,1,0,81,false,stim,false,0,939.5,3,1,2,73276,WMM2,297517,false,false,310,image-keyboard-response,35
true,2,1,4,1,true,z,false,true,0.0-2.0-0.7-0.68-3.68,1,1,0,90,false,stim,false,1,427.3000000715256,3,0,1,73276,WMM2,299469,false,false,313,image-keyboard-response,36
true,2,0,4,0,true,q,false,true,0.0-2.0-0.7-0.69-3.69,1,1,0,81,false,stim,false,0,942.2000000476837,3,1,2,73276,WMM2,301917,false,false,316,image-keyboard-response,37
true,2,0,4,0,true,q,false,false,0.0-2.0-0.7-0.70-3.70,1,1,0,81,false,stim,false,0,740.0999999046326,3,1,2,73276,WMM2,304173,false,true,319,image-keyboard-response,38
true,2,1,4,1,true,z,false,true,0.0-2.0-0.7-0.71-3.71,1,1,0,90,false,stim,false,1,1327.2000000476837,3,0,1,73276,WMM2,307005,false,false,322,image-keyboard-response,39
true,2,2,4,0,false,q,true,false,0.0-2.0-0.8-0.72-3.72,1,1,0,68,false,stim,false,0,952.7000000476837,3,1,2,73276,WMM2,309485,false,false,325,image-keyboard-response,40
true,2,1,4,1,true,z,false,true,0.0-2.0-0.8-0.73-3.73,1,1,0,90,false,stim,false,1,832.3999999761581,3,0,1,73276,WMM2,311837,false,false,328,image-keyboard-response,41
true,2,1,4,0,false,q,true,false,0.0-2.0-0.8-0.74-3.74,1,1,0,90,false,stim,false,0,480.39999997615814,3,1,2,73276,WMM2,313821,false,false,331,image-keyboard-response,42
true,2,2,4,2,true,d,false,true,0.0-2.0-0.8-0.75-3.75,1,1,0,68,false,stim,false,2,761.1000000238419,3,1,0,73276,WMM2,316093,false,false,334,image-keyboard-response,43
true,2,2,4,0,false,q,true,false,0.0-2.0-0.8-0.76-3.76,1,1,0,68,false,stim,false,0,461.5,3,1,2,73276,WMM2,318061,false,false,337,image-keyboard-response,44
true,3,1,2,2,false,d,false,false,0.0-2.0-0.8-0.77-3.77,1,0,1,90,true,stim,true,1,1278.8000000715256,3,0,1,73276,WMM2,320845,false,false,340,image-keyboard-response,1
true,3,2,2,2,true,d,false,true,0.0-2.0-0.8-0.78-3.78,1,0,1,68,false,stim,false,2,509.39999997615814,3,1,0,73276,WMM2,322861,false,false,343,image-keyboard-response,2
true,3,2,2,2,true,d,false,true,0.0-2.0-0.8-0.79-3.79,1,0,1,68,false,stim,false,2,1620.7000000476837,3,1,0,73276,WMM2,325997,false,false,346,image-keyboard-response,3
true,3,2,2,2,true,d,false,true,0.0-2.0-0.8-0.80-3.80,1,0,1,68,false,stim,false,1,1533.2999999523163,3,0,1,73276,WMM2,329053,false,false,349,image-keyboard-response,4
true,3,2,2,2,true,d,false,true,0.0-2.0-0.9-0.81-3.81,1,0,1,68,false,stim,false,1,897.2000000476837,3,0,1,73276,WMM2,331469,false,false,352,image-keyboard-response,5
true,3,1,2,0,false,q,true,false,0.0-2.0-0.9-0.82-3.82,1,0,1,90,false,stim,false,0,989.8999999761581,3,1,2,73276,WMM2,333965,false,false,355,image-keyboard-response,6
true,3,2,2,2,true,d,false,true,0.0-2.0-0.9-0.83-3.83,1,0,1,68,false,stim,false,2,606.2999999523163,3,1,0,73276,WMM2,336093,false,false,358,image-keyboard-response,7
true,3,2,2,2,true,d,false,true,0.0-2.0-0.9-0.84-3.84,1,0,1,68,false,stim,false,2,777.6000000238419,3,1,0,73276,WMM2,338381,false,false,361,image-keyboard-response,8
true,3,2,2,2,true,d,false,true,0.0-2.0-0.9-0.85-3.85,1,0,1,68,false,stim,false,2,1235.2000000476837,3,1,0,73276,WMM2,341133,false,false,364,image-keyboard-response,9
true,3,0,2,0,true,q,false,true,0.0-2.0-0.9-0.86-3.86,1,0,1,81,false,stim,false,0,630.5,3,1,2,73276,WMM2,343277,false,false,367,image-keyboard-response,10
true,3,0,2,0,true,q,false,true,0.0-2.0-0.9-0.87-3.87,1,0,1,81,false,stim,false,0,681.5,3,1,2,73276,WMM2,345469,false,false,370,image-keyboard-response,11
true,3,2,2,2,true,d,false,false,0.0-2.0-0.9-0.88-3.88,1,0,1,68,false,stim,false,1,545.3999999761581,3,0,1,73276,WMM2,347533,false,true,373,image-keyboard-response,12
true,3,2,2,2,true,d,false,true,0.0-2.0-0.9-0.89-3.89,1,0,1,68,false,stim,false,1,670.6999999284744,3,0,1,73276,WMM2,349709,false,false,376,image-keyboard-response,13
true,3,2,2,2,true,d,false,true,0.0-2.0-0.10-0.90-3.90,1,0,1,68,false,stim,false,2,568.0,3,1,0,73276,WMM2,351805,false,false,379,image-keyboard-response,14
true,3,2,2,2,true,d,false,true,0.0-2.0-0.10-0.91-3.91,1,0,1,68,false,stim,false,2,587.1000000238419,3,1,0,73276,WMM2,353917,false,false,382,image-keyboard-response,15
true,3,0,2,0,true,q,false,true,0.0-2.0-0.10-0.92-3.92,1,0,1,81,false,stim,false,0,830.5,3,1,2,73276,WMM2,356269,false,false,385,image-keyboard-response,16
true,3,0,2,0,true,q,false,true,0.0-2.0-0.10-0.93-3.93,1,0,1,81,false,stim,false,0,481.7000000476837,3,1,2,73276,WMM2,358269,false,false,388,image-keyboard-response,17
true,3,2,2,2,true,d,false,true,0.0-2.0-0.10-0.94-3.94,1,0,1,68,false,stim,false,1,735.0,3,0,1,73276,WMM2,360509,false,false,391,image-keyboard-response,18
true,3,0,2,0,true,q,false,true,0.0-2.0-0.10-0.95-3.95,1,0,1,81,false,stim,false,0,830.2999999523163,3,1,2,73276,WMM2,362861,false,false,394,image-keyboard-response,19
true,3,2,2,2,true,d,false,true,0.0-2.0-0.10-0.96-3.96,1,0,1,68,false,stim,false,1,993.8000000715256,3,0,1,73276,WMM2,365373,false,false,397,image-keyboard-response,20
true,3,2,2,2,true,d,false,true,0.0-2.0-0.10-0.97-3.97,1,0,1,68,false,stim,false,1,1157.2999999523163,3,0,1,73276,WMM2,368045,false,false,400,image-keyboard-response,21
true,3,2,2,2,true,d,false,true,0.0-2.0-0.10-0.98-3.98,1,0,1,68,false,stim,false,2,905.1999999284744,3,1,0,73276,WMM2,370477,false,false,403,image-keyboard-response,22
true,3,0,2,0,true,q,false,true,0.0-2.0-0.11-0.99-3.99,1,0,1,81,false,stim,false,0,540.6000000238419,3,1,2,73276,WMM2,372541,false,false,406,image-keyboard-response,23
true,3,2,2,2,true,d,false,true,0.0-2.0-0.11-0.100-3.100,1,0,1,68,false,stim,false,2,638.0999999046326,3,1,0,73276,WMM2,374701,false,false,409,image-keyboard-response,24
true,3,2,2,2,true,d,false,true,0.0-2.0-0.11-0.101-3.101,1,0,1,68,false,stim,false,1,624.9000000953674,3,0,1,73276,WMM2,376845,false,false,412,image-keyboard-response,25
true,3,0,2,0,true,q,false,false,0.0-2.0-0.11-0.102-3.102,1,0,1,81,false,stim,false,0,504.60000002384186,3,1,2,73276,WMM2,378861,false,true,415,image-keyboard-response,26
true,3,2,2,2,true,d,false,true,0.0-2.0-0.11-0.103-3.103,1,0,1,68,false,stim,false,1,553.6000000238419,3,0,1,73276,WMM2,380941,false,false,418,image-keyboard-response,27
true,3,2,2,2,true,d,false,true,0.0-2.0-0.11-0.104-3.104,1,0,1,68,false,stim,false,2,627.0,3,1,0,73276,WMM2,383085,false,false,421,image-keyboard-response,28
true,3,2,2,2,true,d,false,true,0.0-2.0-0.11-0.105-3.105,1,0,1,68,false,stim,false,1,710.2000000476837,3,0,1,73276,WMM2,385309,false,false,424,image-keyboard-response,29
true,3,0,2,0,true,q,false,true,0.0-2.0-0.11-0.106-3.106,1,0,1,81,false,stim,false,0,679.4000000953674,3,1,2,73276,WMM2,387501,false,false,427,image-keyboard-response,30
true,4,2,2,2,true,d,false,true,0.0-2.0-0.11-0.107-3.107,1,0,1,68,true,stim,false,2,633.0,3,1,0,73276,WMM2,389661,false,false,430,image-keyboard-response,1
true,4,2,2,2,true,d,false,true,0.0-2.0-0.12-0.108-3.108,1,0,1,68,false,stim,false,2,712.2000000476837,3,1,0,73276,WMM2,391885,false,false,433,image-keyboard-response,2
true,4,2,2,2,true,d,false,true,0.0-2.0-0.12-0.109-3.109,1,0,1,68,false,stim,false,2,633.7000000476837,3,1,0,73276,WMM2,394029,false,false,436,image-keyboard-response,3
true,4,0,2,0,true,q,false,true,0.0-2.0-0.12-0.110-3.110,1,0,1,81,false,stim,false,0,848.8999999761581,3,1,2,73276,WMM2,396397,false,false,439,image-keyboard-response,4
true,4,2,2,2,true,d,false,true,0.0-2.0-0.12-0.111-3.111,1,0,1,68,false,stim,false,2,897.8000000715256,3,1,0,73276,WMM2,398813,false,false,442,image-keyboard-response,5
true,4,2,2,0,false,q,false,false,0.0-2.0-0.12-0.112-3.112,1,0,1,68,false,stim,true,2,717.7999999523163,3,0,1,73276,WMM2,401037,false,false,445,image-keyboard-response,6
true,4,2,2,0,false,q,false,false,0.0-2.0-0.12-0.113-3.113,1,0,1,68,false,stim,true,2,619.1000000238419,3,0,1,73276,WMM2,403181,false,false,448,image-keyboard-response,7
true,4,0,2,0,true,q,false,false,0.0-2.0-0.12-0.114-3.114,1,0,1,81,false,stim,false,0,770.5,3,1,2,73276,WMM2,405469,false,true,451,image-keyboard-response,8
true,4,0,2,0,true,q,false,true,0.0-2.0-0.12-0.115-3.115,1,0,1,81,false,stim,false,0,668.6000000238419,3,1,2,73276,WMM2,407645,false,false,454,image-keyboard-response,9
true,4,1,2,0,false,q,true,false,0.0-2.0-0.12-0.116-3.116,1,0,1,90,false,stim,false,2,761.2999999523163,3,0,1,73276,WMM2,409933,false,false,457,image-keyboard-response,10
true,4,1,2,2,false,d,true,false,0.0-2.0-0.13-0.117-3.117,1,0,1,90,false,stim,false,2,1054.6000000238419,3,1,0,73276,WMM2,412509,false,false,460,image-keyboard-response,11
true,4,0,2,2,false,d,true,false,0.0-2.0-0.13-0.118-3.118,1,0,1,81,false,stim,false,2,449.2999999523163,3,1,0,73276,WMM2,414477,false,false,463,image-keyboard-response,12
true,4,0,2,0,true,q,false,true,0.0-2.0-0.13-0.119-3.119,1,0,1,81,false,stim,false,0,789.3999999761581,3,1,2,73276,WMM2,416781,false,false,466,image-keyboard-response,13
true,4,2,2,0,false,q,false,false,0.0-2.0-0.13-0.120-3.120,1,0,1,68,false,stim,true,2,896.8999999761581,3,0,1,73276,WMM2,419181,false,false,469,image-keyboard-response,14
true,4,0,2,0,true,q,false,true,0.0-2.0-0.13-0.121-3.121,1,0,1,81,false,stim,false,2,558.1999999284744,3,0,1,73276,WMM2,421261,false,false,472,image-keyboard-response,15
true,4,0,2,0,true,q,false,true,0.0-2.0-0.13-0.122-3.122,1,0,1,81,false,stim,false,0,431.5,3,1,2,73276,WMM2,423213,false,false,475,image-keyboard-response,16
true,4,0,2,0,true,q,false,false,0.0-2.0-0.13-0.123-3.123,1,0,1,81,false,stim,false,0,738.5999999046326,3,1,2,73276,WMM2,425469,false,true,478,image-keyboard-response,17
true,4,0,2,0,true,q,false,true,0.0-2.0-0.13-0.124-3.124,1,0,1,81,false,stim,false,2,549.7999999523163,3,0,1,73276,WMM2,427533,false,false,481,image-keyboard-response,18
true,4,1,2,2,false,d,true,true,0.0-2.0-0.13-0.125-3.125,1,0,1,90,false,stim,false,2,573.2999999523163,3,1,0,73276,WMM2,429629,false,true,484,image-keyboard-response,19
true,4,0,2,0,true,q,false,true,0.0-2.0-0.14-0.126-3.126,1,0,1,81,false,stim,false,0,535.4000000953674,3,1,2,73276,WMM2,431677,false,false,487,image-keyboard-response,20
true,4,0,2,0,true,q,false,true,0.0-2.0-0.14-0.127-3.127,1,0,1,81,false,stim,false,2,728.7000000476837,3,0,1,73276,WMM2,433917,false,false,490,image-keyboard-response,21
true,4,0,2,0,true,q,false,false,0.0-2.0-0.14-0.128-3.128,1,0,1,81,false,stim,false,0,453.1999999284744,3,1,2,73276,WMM2,435885,false,true,493,image-keyboard-response,22
true,4,0,2,0,true,q,false,true,0.0-2.0-0.14-0.129-3.129,1,0,1,81,false,stim,false,2,529.4000000953674,3,0,1,73276,WMM2,437933,false,false,496,image-keyboard-response,23
true,4,0,2,0,true,q,false,true,0.0-2.0-0.14-0.130-3.130,1,0,1,81,false,stim,false,2,485.60000002384186,3,0,1,73276,WMM2,439933,false,false,499,image-keyboard-response,24
true,4,1,2,2,false,d,true,false,0.0-2.0-0.14-0.131-3.131,1,0,1,90,false,stim,false,2,786.7000000476837,3,1,0,73276,WMM2,442236,false,false,502,image-keyboard-response,25
true,4,0,2,0,true,q,false,true,0.0-2.0-0.14-0.132-3.132,1,0,1,81,false,stim,false,0,406.2000000476837,3,1,2,73276,WMM2,444156,false,false,505,image-keyboard-response,26
true,4,1,2,2,false,d,true,false,0.0-2.0-0.14-0.133-3.133,1,0,1,90,false,stim,false,2,455.2000000476837,3,1,0,73276,WMM2,446140,false,false,508,image-keyboard-response,27
true,4,2,2,2,true,d,false,true,0.0-2.0-0.14-0.134-3.134,1,0,1,68,false,stim,false,2,769.5,3,1,0,73276,WMM2,448429,false,false,511,image-keyboard-response,28
true,4,0,2,0,true,q,false,true,0.0-2.0-0.15-0.135-3.135,1,0,1,81,false,stim,false,2,586.2999999523163,3,0,1,73276,WMM2,450541,false,false,514,image-keyboard-response,29
true,4,2,2,2,true,d,false,true,0.0-2.0-0.15-0.136-3.136,1,0,1,68,false,stim,false,2,477.2000000476837,3,1,0,73276,WMM2,452540,false,false,517,image-keyboard-response,30
true,4,0,2,0,true,q,false,true,0.0-2.0-0.15-0.137-3.137,1,0,1,81,false,stim,false,0,722.5,3,0,2,73276,WMM2,454780,false,false,520,image-keyboard-response,31
true,4,2,2,2,true,d,false,true,0.0-2.0-0.15-0.138-3.138,1,0,1,68,false,stim,false,2,351.8000000715256,3,0,0,73276,WMM2,456636,false,false,523,image-keyboard-response,32
true,4,0,2,0,true,q,false,true,0.0-2.0-0.15-0.139-3.139,1,0,1,81,false,stim,false,2,639.0,3,1,1,73276,WMM2,458797,false,false,526,image-keyboard-response,33
true,4,2,2,2,true,d,false,true,0.0-2.0-0.15-0.140-3.140,1,0,1,68,false,stim,false,2,1097.4000000953674,3,0,0,73276,WMM2,461404,false,false,529,image-keyboard-response,34
true,4,0,2,0,true,q,false,true,0.0-2.0-0.15-0.141-3.141,1,0,1,81,false,stim,false,2,627.8999999761581,3,1,1,73276,WMM2,463548,false,false,532,image-keyboard-response,35
true,4,0,2,0,true,q,false,true,0.0-2.0-0.15-0.142-3.142,1,0,1,81,false,stim,false,0,421.3000000715256,3,0,2,73276,WMM2,465484,false,false,535,image-keyboard-response,36
true,4,0,2,0,true,q,false,true,0.0-2.0-0.15-0.143-3.143,1,0,1,81,false,stim,false,0,488.39999997615814,3,0,2,73276,WMM2,467484,false,false,538,image-keyboard-response,37
true,4,0,2,0,true,q,false,true,0.0-2.0-0.16-0.144-3.144,1,0,1,81,false,stim,false,2,830.5,3,1,1,73276,WMM2,469820,false,false,541,image-keyboard-response,38
true,4,0,2,0,true,q,false,true,0.0-2.0-0.16-0.145-3.145,1,0,1,81,false,stim,false,0,528.7000000476837,3,0,2,73276,WMM2,471868,false,false,544,image-keyboard-response,39
true,4,2,2,2,true,d,false,true,0.0-2.0-0.16-0.146-3.146,1,0,1,68,false,stim,false,2,674.2000000476837,3,0,0,73276,WMM2,474060,false,false,547,image-keyboard-response,40
true,5,2,1,1,false,z,true,false,0.0-2.0-0.16-0.147-3.147,0,1,0,68,true,stim,false,0,745.6000000238419,3,0,2,73276,WMM2,476332,false,false,550,image-keyboard-response,1
true,5,0,1,0,true,q,false,true,0.0-2.0-0.16-0.148-3.148,0,1,0,81,false,stim,false,0,531.0,3,1,1,73276,WMM2,478380,false,false,553,image-keyboard-response,2
true,5,0,1,1,false,z,false,false,0.0-2.0-0.16-0.149-3.149,0,1,0,81,false,stim,true,0,484.10000002384186,3,0,2,73276,WMM2,480379,false,false,556,image-keyboard-response,3
true,5,2,1,1,false,z,false,false,0.0-2.0-0.16-0.150-3.150,0,1,0,68,false,stim,true,2,601.6000000238419,3,0,0,73276,WMM2,482508,false,false,559,image-keyboard-response,4
true,5,0,1,0,true,q,false,true,0.0-2.0-0.16-0.151-3.151,0,1,0,81,false,stim,false,0,606.6999999284744,3,1,1,73276,WMM2,484635,false,false,562,image-keyboard-response,5
true,5,2,1,1,false,z,false,false,0.0-2.0-0.16-0.152-3.152,0,1,0,68,false,stim,true,2,778.0,3,0,0,73276,WMM2,486939,false,false,565,image-keyboard-response,6
true,5,0,1,1,false,z,false,false,0.0-2.0-0.17-0.153-3.153,0,1,0,81,false,stim,true,0,781.3999999761581,3,0,2,73276,WMM2,489243,false,false,568,image-keyboard-response,7
true,5,0,1,1,false,z,true,true,0.0-2.0-0.17-0.154-3.154,0,1,0,81,false,stim,false,2,968.8999999761581,3,0,0,73276,WMM2,491724,false,true,571,image-keyboard-response,8
true,5,1,1,1,true,z,false,true,0.0-2.0-0.17-0.155-3.155,0,1,0,90,false,stim,false,0,449.0,3,0,2,73276,WMM2,493692,false,false,574,image-keyboard-response,9
true,5,0,1,0,true,q,false,false,0.0-2.0-0.17-0.156-3.156,0,1,0,81,false,stim,false,0,951.5,3,1,1,73276,WMM2,496172,false,true,577,image-keyboard-response,10
true,5,1,1,1,true,z,false,true,0.0-2.0-0.17-0.157-3.157,0,1,0,90,false,stim,false,0,825.0,3,0,2,73276,WMM2,498508,false,false,580,image-keyboard-response,11
true,5,2,1,0,false,q,true,false,0.0-2.0-0.17-0.158-3.158,0,1,0,68,false,stim,false,0,1828.3000000715256,3,1,1,73276,WMM2,501851,false,false,583,image-keyboard-response,12
true,5,1,1,0,false,q,true,true,0.0-2.0-0.17-0.159-3.159,0,1,0,90,false,stim,false,0,878.1999999284744,3,1,1,73276,WMM2,504251,false,true,586,image-keyboard-response,13
true,5,0,1,1,false,z,true,false,0.0-2.0-0.17-0.160-3.160,0,1,0,81,false,stim,false,2,618.1000000238419,3,0,0,73276,WMM2,506380,false,false,589,image-keyboard-response,14
true,5,0,1,1,false,z,true,false,0.0-2.0-0.17-0.161-3.161,0,1,0,81,false,stim,false,2,531.1999999284744,3,0,0,73276,WMM2,508427,false,false,592,image-keyboard-response,15
true,5,1,1,1,true,z,false,false,0.0-2.0-0.18-0.162-3.162,0,1,0,90,false,stim,false,0,440.5,3,0,2,73276,WMM2,510379,false,true,595,image-keyboard-response,16
true,5,0,1,1,false,z,true,false,0.0-2.0-0.18-0.163-3.163,0,1,0,81,false,stim,false,2,1200.6999999284744,3,0,0,73276,WMM2,513099,false,false,598,image-keyboard-response,17
true,5,1,1,1,true,z,false,true,0.0-2.0-0.18-0.164-3.164,0,1,0,90,false,stim,false,0,777.1999999284744,3,0,2,73276,WMM2,515387,false,false,601,image-keyboard-response,18
true,5,1,1,1,true,z,false,false,0.0-2.0-0.18-0.165-3.165,0,1,0,90,false,stim,false,0,650.7999999523163,3,0,2,73276,WMM2,517547,false,true,604,image-keyboard-response,19
true,5,2,1,0,false,q,true,false,0.0-2.0-0.18-0.166-3.166,0,1,0,68,false,stim,false,0,1076.0999999046326,3,1,1,73276,WMM2,520139,false,false,607,image-keyboard-response,20
true,5,2,1,1,false,z,false,false,0.0-2.0-0.18-0.167-3.167,0,1,0,68,false,stim,true,2,1013.3000000715256,3,0,0,73276,WMM2,522668,false,false,610,image-keyboard-response,21
true,5,1,1,1,true,z,false,true,0.0-2.0-0.18-0.168-3.168,0,1,0,90,false,stim,false,2,459.1999999284744,3,0,0,73276,WMM2,524652,false,false,613,image-keyboard-response,22
true,5,1,1,0,false,q,true,false,0.0-2.0-0.18-0.169-3.169,0,1,0,90,false,stim,false,0,848.6000000238419,3,1,1,73276,WMM2,527020,false,false,616,image-keyboard-response,23
true,5,0,1,0,true,q,false,true,0.0-2.0-0.18-0.170-3.170,0,1,0,81,false,stim,false,0,433.7000000476837,3,1,1,73276,WMM2,528972,false,false,619,image-keyboard-response,24
true,5,1,1,1,true,z,false,true,0.0-2.0-0.19-0.171-3.171,0,1,0,90,false,stim,false,0,498.89999997615814,3,0,2,73276,WMM2,530988,false,false,622,image-keyboard-response,25
true,5,1,1,1,true,z,false,true,0.0-2.0-0.19-0.172-3.172,0,1,0,90,false,stim,false,2,596.3000000715256,3,0,0,73276,WMM2,533100,false,false,625,image-keyboard-response,26
true,5,0,1,0,true,q,false,true,0.0-2.0-0.19-0.173-3.173,0,1,0,81,false,stim,false,0,687.3999999761581,3,1,1,73276,WMM2,535292,false,false,628,image-keyboard-response,27
true,5,0,1,0,true,q,false,true,0.0-2.0-0.19-0.174-3.174,0,1,0,81,false,stim,false,0,858.0,3,1,1,73276,WMM2,537676,false,false,631,image-keyboard-response,28
true,5,0,1,0,true,q,false,false,0.0-2.0-0.19-0.175-3.175,0,1,0,81,false,stim,false,0,702.0,3,1,1,73276,WMM2,539900,false,true,634,image-keyboard-response,29
true,5,1,1,1,true,z,false,true,0.0-2.0-0.19-0.176-3.176,0,1,0,90,false,stim,false,0,799.3000000715256,3,0,2,73276,WMM2,542220,false,false,637,image-keyboard-response,30
true,5,1,1,1,true,z,false,true,0.0-2.0-0.19-0.177-3.177,0,1,0,90,false,stim,false,0,839.0,3,0,2,73276,WMM2,544572,false,false,640,image-keyboard-response,31
true,5,1,1,1,true,z,false,true,0.0-2.0-0.19-0.178-3.178,0,1,0,90,false,stim,false,2,905.5,3,1,0,73276,WMM2,546988,false,false,643,image-keyboard-response,32
true,5,1,1,1,true,z,false,true,0.0-2.0-0.19-0.179-3.179,0,1,0,90,false,stim,false,2,673.8999999761581,3,1,0,73276,WMM2,549180,false,false,646,image-keyboard-response,33
true,5,0,1,0,true,q,false,false,0.0-2.0-0.20-0.180-3.180,0,1,0,81,false,stim,false,0,928.8999999761581,3,1,1,73276,WMM2,551628,false,true,649,image-keyboard-response,34
true,5,1,1,1,true,z,false,true,0.0-2.0-0.20-0.181-3.181,0,1,0,90,false,stim,false,2,664.8999999761581,3,1,0,73276,WMM2,553804,false,false,652,image-keyboard-response,35
true,5,1,1,1,true,z,false,true,0.0-2.0-0.20-0.182-3.182,0,1,0,90,false,stim,false,2,699.1000000238419,3,1,0,73276,WMM2,556012,false,false,655,image-keyboard-response,36
true,5,0,1,1,false,z,false,false,0.0-2.0-0.20-0.183-3.183,0,1,0,81,false,stim,true,0,644.8999999761581,3,0,2,73276,WMM2,558172,false,false,658,image-keyboard-response,37
true,6,1,2,0,false,q,true,false,0.0-2.0-0.20-0.184-3.184,1,1,0,90,true,stim,false,0,650.6000000238419,3,1,1,73276,WMM2,560348,false,false,661,image-keyboard-response,1
true,6,2,2,0,false,q,true,false,0.0-2.0-0.20-0.185-3.185,1,1,0,68,false,stim,false,0,1377.1000000238419,3,1,1,73276,WMM2,563244,false,false,664,image-keyboard-response,2
true,6,1,2,0,false,q,false,true,0.0-2.0-0.20-0.186-3.186,1,1,0,90,false,stim,true,1,917.8999999761581,3,0,2,73276,WMM2,565676,false,true,667,image-keyboard-response,3
true,6,1,2,1,true,z,false,true,0.0-2.0-0.20-0.187-3.187,1,1,0,90,false,stim,false,1,937.0,3,1,0,73276,WMM2,568140,false,false,670,image-keyboard-response,4
true,6,1,2,0,false,q,false,false,0.0-2.0-0.20-0.188-3.188,1,1,0,90,false,stim,true,1,638.3999999761581,3,0,2,73276,WMM2,570300,false,false,673,image-keyboard-response,5
true,6,0,2,0,true,q,false,true,0.0-2.0-0.21-0.189-3.189,1,1,0,81,false,stim,false,0,882.1000000238419,3,1,1,73276,WMM2,572700,false,false,676,image-keyboard-response,6
true,6,1,2,1,true,z,false,true,0.0-2.0-0.21-0.190-3.190,1,1,0,90,false,stim,false,1,582.6000000238419,3,1,0,73276,WMM2,574796,false,false,679,image-keyboard-response,7
true,6,1,2,0,false,q,false,false,0.0-2.0-0.21-0.191-3.191,1,1,0,90,false,stim,true,1,899.7000000476837,3,0,2,73276,WMM2,577212,false,false,682,image-keyboard-response,8
true,6,1,2,0,false,q,true,false,0.0-2.0-0.21-0.192-3.192,1,1,0,90,false,stim,false,0,626.1000000238419,3,1,1,73276,WMM2,579356,false,false,685,image-keyboard-response,9
true,6,0,2,0,true,q,false,true,0.0-2.0-0.21-0.193-3.193,1,1,0,81,false,stim,false,1,1071.5999999046326,3,0,2,73276,WMM2,581932,false,false,688,image-keyboard-response,10
true,6,0,2,0,true,q,false,true,0.0-2.0-0.21-0.194-3.194,1,1,0,81,false,stim,false,1,734.7999999523163,3,0,2,73276,WMM2,584172,false,false,691,image-keyboard-response,11
true,6,1,2,1,true,z,false,true,0.0-2.0-0.21-0.195-3.195,1,1,0,90,false,stim,false,1,396.1999999284744,3,1,0,73276,WMM2,586092,false,false,694,image-keyboard-response,12
true,6,0,2,0,true,q,false,true,0.0-2.0-0.21-0.196-3.196,1,1,0,81,false,stim,false,0,605.6000000238419,3,1,1,73276,WMM2,588219,false,false,697,image-keyboard-response,13
true,6,1,2,1,true,z,false,true,0.0-2.0-0.21-0.197-3.197,1,1,0,90,false,stim,false,1,975.0,3,1,0,73276,WMM2,590716,false,false,700,image-keyboard-response,14
true,6,1,2,1,true,z,false,true,0.0-2.0-0.22-0.198-3.198,1,1,0,90,false,stim,false,1,614.3999999761581,3,1,0,73276,WMM2,592859,false,false,703,image-keyboard-response,15
true,6,0,2,0,true,q,false,true,0.0-2.0-0.22-0.199-3.199,1,1,0,81,false,stim,false,0,583.7000000476837,3,1,1,73276,WMM2,594972,false,false,706,image-keyboard-response,16
true,6,0,2,0,true,q,false,true,0.0-2.0-0.22-0.200-3.200,1,1,0,81,false,stim,false,1,424.60000002384186,3,0,2,73276,WMM2,596923,false,false,709,image-keyboard-response,17
true,6,0,2,0,true,q,false,true,0.0-2.0-0.22-0.201-3.201,1,1,0,81,false,stim,false,1,586.2000000476837,3,0,2,73276,WMM2,599035,false,false,712,image-keyboard-response,18
true,6,0,2,0,true,q,false,true,0.0-2.0-0.22-0.202-3.202,1,1,0,81,false,stim,false,0,527.5,3,1,1,73276,WMM2,601083,false,false,715,image-keyboard-response,19
true,6,0,2,0,true,q,false,true,0.0-2.0-0.22-0.203-3.203,1,1,0,81,false,stim,false,1,514.9000000953674,3,0,2,73276,WMM2,603116,false,false,718,image-keyboard-response,20
true,6,1,2,1,true,z,false,true,0.0-2.0-0.22-0.204-3.204,1,1,0,90,false,stim,false,1,568.1999999284744,3,1,0,73276,WMM2,605196,false,false,721,image-keyboard-response,21
true,6,1,2,1,true,z,false,false,0.0-2.0-0.22-0.205-3.205,1,1,0,90,false,stim,false,1,649.2000000476837,3,1,0,73276,WMM2,607355,false,true,724,image-keyboard-response,22
true,6,0,2,0,true,q,false,false,0.0-2.0-0.22-0.206-3.206,1,1,0,81,false,stim,false,0,526.5,3,0,1,73276,WMM2,609403,false,true,727,image-keyboard-response,23
true,6,0,2,0,true,q,false,false,0.0-2.0-0.23-0.207-3.207,1,1,0,81,false,stim,false,1,595.8000000715256,3,1,2,73276,WMM2,611515,false,true,730,image-keyboard-response,24
true,6,1,2,0,false,q,true,true,0.0-2.0-0.23-0.208-3.208,1,1,0,90,false,stim,false,0,1071.2000000476837,3,0,1,73276,WMM2,614091,false,true,733,image-keyboard-response,25
true,6,1,2,0,false,q,true,false,0.0-2.0-0.23-0.209-3.209,1,1,0,90,false,stim,false,0,554.8000000715256,3,0,1,73276,WMM2,616172,false,false,736,image-keyboard-response,26
true,6,1,2,1,true,z,false,false,0.0-2.0-0.23-0.210-3.210,1,1,0,90,false,stim,false,1,686.0,3,1,0,73276,WMM2,618379,false,true,739,image-keyboard-response,27
true,6,0,2,1,false,z,true,false,0.0-2.0-0.23-0.211-3.211,1,1,0,81,false,stim,false,1,620.0,3,1,0,73276,WMM2,620507,false,false,742,image-keyboard-response,28
true,6,1,2,0,false,q,false,true,0.0-2.0-0.23-0.212-3.212,1,1,0,90,false,stim,true,1,904.8000000715256,3,1,2,73276,WMM2,622923,false,true,745,image-keyboard-response,29
true,6,1,2,0,false,q,true,false,0.0-2.0-0.23-0.213-3.213,1,1,0,90,false,stim,false,0,676.0,3,0,1,73276,WMM2,625115,false,false,748,image-keyboard-response,30
true,7,1,4,0,false,q,true,false,0.0-2.0-0.23-0.214-3.214,1,0,1,90,true,stim,false,0,941.3999999761581,3,1,2,73276,WMM2,627579,false,false,751,image-keyboard-response,1
true,7,2,4,1,false,z,true,true,0.0-2.0-0.23-0.215-3.215,1,0,1,68,false,stim,false,1,722.8999999761581,3,1,0,73276,WMM2,629819,false,true,754,image-keyboard-response,2
true,7,2,4,0,false,q,true,false,0.0-2.0-0.24-0.216-3.216,1,0,1,68,false,stim,false,0,1000.2999999523163,3,0,1,73276,WMM2,632331,false,false,757,image-keyboard-response,3
true,7,1,4,0,false,q,true,false,0.0-2.0-0.24-0.217-3.217,1,0,1,90,false,stim,false,0,1337.3999999761581,3,1,2,73276,WMM2,635195,false,false,760,image-keyboard-response,4
true,7,2,4,1,false,z,true,true,0.0-2.0-0.24-0.218-3.218,1,0,1,68,false,stim,false,1,781.5,3,1,0,73276,WMM2,637499,false,true,763,image-keyboard-response,5
true,7,2,4,0,false,q,true,false,0.0-2.0-0.24-0.219-3.219,1,0,1,68,false,stim,false,0,782.8999999761581,3,0,1,73276,WMM2,639803,false,false,766,image-keyboard-response,6
true,7,2,4,0,false,q,true,false,0.0-2.0-0.24-0.220-3.220,1,0,1,68,false,stim,false,0,1610.5,3,1,2,73276,WMM2,642923,false,false,769,image-keyboard-response,7
true,7,0,4,0,true,q,false,true,0.0-2.0-0.24-0.221-3.221,1,0,1,81,false,stim,false,0,724.0,3,0,1,73276,WMM2,645163,false,false,772,image-keyboard-response,8
true,7,2,4,0,false,q,true,false,0.0-2.0-0.24-0.222-3.222,1,0,1,68,false,stim,false,0,739.6000000238419,3,1,2,73276,WMM2,647419,false,false,775,image-keyboard-response,9
true,7,2,4,1,false,z,true,false,0.0-2.0-0.24-0.223-3.223,1,0,1,68,false,stim,false,1,730.0,3,1,0,73276,WMM2,649659,false,false,778,image-keyboard-response,10
true,7,1,4,1,true,z,false,true,0.0-2.0-0.24-0.224-3.224,1,0,1,90,false,stim,false,1,1154.5,3,1,0,73276,WMM2,652331,false,false,781,image-keyboard-response,11
true,7,0,4,0,true,q,false,true,0.0-2.0-0.25-0.225-3.225,1,0,1,81,false,stim,false,0,517.8999999761581,3,0,1,73276,WMM2,654363,false,false,784,image-keyboard-response,12
true,7,1,4,0,false,q,true,false,0.0-2.0-0.25-0.226-3.226,1,0,1,90,false,stim,false,0,871.0,3,1,2,73276,WMM2,656747,false,false,787,image-keyboard-response,13
true,7,1,4,1,true,z,false,false,0.0-2.0-0.25-0.227-3.227,1,0,1,90,false,stim,false,1,776.6999999284744,3,1,0,73276,WMM2,659051,false,true,790,image-keyboard-response,14
true,7,0,4,0,true,q,false,true,0.0-2.0-0.25-0.228-3.228,1,0,1,81,false,stim,false,0,868.0,3,0,1,73276,WMM2,661435,false,false,793,image-keyboard-response,15
true,7,1,4,1,true,z,false,true,0.0-2.0-0.25-0.229-3.229,1,0,1,90,false,stim,false,1,637.2999999523163,3,1,0,73276,WMM2,663595,false,false,796,image-keyboard-response,16
true,7,0,4,0,true,q,false,false,0.0-2.0-0.25-0.230-3.230,1,0,1,81,false,stim,false,0,722.8999999761581,3,1,2,73276,WMM2,665835,false,true,799,image-keyboard-response,17
true,7,1,4,1,true,z,false,true,0.0-2.0-0.25-0.231-3.231,1,0,1,90,false,stim,false,1,758.2999999523163,3,1,0,73276,WMM2,668107,false,false,802,image-keyboard-response,18
true,7,0,4,0,true,q,false,true,0.0-2.0-0.25-0.232-3.232,1,0,1,81,false,stim,false,0,623.5,3,0,1,73276,WMM2,670235,false,false,805,image-keyboard-response,19
true,7,0,4,0,true,q,false,true,0.0-2.0-0.25-0.233-3.233,1,0,1,81,false,stim,false,0,530.7000000476837,3,1,2,73276,WMM2,672283,false,false,808,image-keyboard-response,20
true,7,1,4,1,true,z,false,true,0.0-2.0-0.26-0.234-3.234,1,0,1,90,false,stim,false,1,935.2999999523163,3,1,0,73276,WMM2,674731,false,false,811,image-keyboard-response,21
true,7,1,4,1,true,z,false,false,0.0-2.0-0.26-0.235-3.235,1,0,1,90,false,stim,false,1,703.3999999761581,3,1,0,73276,WMM2,676939,false,true,814,image-keyboard-response,22
true,7,0,4,0,true,q,false,true,0.0-2.0-0.26-0.236-3.236,1,0,1,81,false,stim,false,0,623.6000000238419,3,0,2,73276,WMM2,679067,false,false,817,image-keyboard-response,23
true,7,0,4,0,true,q,false,true,0.0-2.0-0.26-0.237-3.237,1,0,1,81,false,stim,false,0,592.2000000476837,3,1,1,73276,WMM2,681163,false,false,820,image-keyboard-response,24
true,7,0,4,0,true,q,false,false,0.0-2.0-0.26-0.238-3.238,1,0,1,81,false,stim,false,0,690.5,3,1,1,73276,WMM2,683371,false,true,823,image-keyboard-response,25
true,7,0,4,0,true,q,false,true,0.0-2.0-0.26-0.239-3.239,1,0,1,81,false,stim,false,0,631.1000000238419,3,1,1,73276,WMM2,685515,false,false,826,image-keyboard-response,26
true,7,1,4,1,true,z,false,true,0.0-2.0-0.26-0.240-3.240,1,0,1,90,false,stim,false,1,634.2999999523163,3,1,0,73276,WMM2,687659,false,false,829,image-keyboard-response,27
true,7,0,4,0,true,q,false,true,0.0-2.0-0.26-0.241-3.241,1,0,1,81,false,stim,false,0,719.3999999761581,3,0,2,73276,WMM2,689899,false,false,832,image-keyboard-response,28
true,7,0,4,0,true,q,false,true,0.0-2.0-0.26-0.242-3.242,1,0,1,81,false,stim,false,0,566.7000000476837,3,0,2,73276,WMM2,691995,false,false,835,image-keyboard-response,29
true,7,0,4,0,true,q,false,true,0.0-2.0-0.27-0.243-3.243,1,0,1,81,false,stim,false,0,579.2000000476837,3,1,1,73276,WMM2,694091,false,false,838,image-keyboard-response,30
true,8,0,3,0,true,q,false,true,0.0-2.0-0.27-0.244-3.244,1,1,0,81,true,stim,false,0,543.3999999761581,3,1,1,73276,WMM2,696155,false,false,841,image-keyboard-response,1
true,8,0,3,2,false,d,false,false,0.0-2.0-0.27-0.245-3.245,1,1,0,81,false,stim,true,0,954.6000000238419,3,0,2,73276,WMM2,698619,false,false,844,image-keyboard-response,2
true,8,0,3,2,false,d,false,false,0.0-2.0-0.27-0.246-3.246,1,1,0,81,false,stim,true,0,615.8999999761581,3,0,2,73276,WMM2,700747,false,false,847,image-keyboard-response,3
true,8,1,3,2,false,d,true,false,0.0-2.0-0.27-0.247-3.247,1,1,0,90,false,stim,false,0,957.3999999761581,3,0,2,73276,WMM2,703226,false,false,850,image-keyboard-response,4
true,8,1,3,1,true,z,false,true,0.0-2.0-0.27-0.248-3.248,1,1,0,90,false,stim,false,1,767.7999999523163,3,1,0,73276,WMM2,705498,false,false,853,image-keyboard-response,5
true,8,1,3,1,true,z,false,true,0.0-2.0-0.27-0.249-3.249,1,1,0,90,false,stim,false,1,1037.5,3,1,0,73276,WMM2,708042,false,false,856,image-keyboard-response,6
true,8,1,3,1,true,z,false,true,0.0-2.0-0.27-0.250-3.250,1,1,0,90,false,stim,false,1,817.7999999523163,3,1,0,73276,WMM2,710378,false,false,859,image-keyboard-response,7
true,8,1,3,0,false,q,true,false,0.0-2.0-0.27-0.251-3.251,1,1,0,90,false,stim,false,0,653.3999999761581,3,1,1,73276,WMM2,712554,false,false,862,image-keyboard-response,8
true,8,1,3,1,true,z,false,false,0.0-2.0-0.28-0.252-3.252,1,1,0,90,false,stim,false,1,688.2000000476837,3,1,0,73276,WMM2,714762,false,true,865,image-keyboard-response,9
true,8,2,3,2,true,d,false,true,0.0-2.0-0.28-0.253-3.253,1,1,0,68,false,stim,false,0,1031.6000000238419,3,0,2,73276,WMM2,717322,false,false,868,image-keyboard-response,10
true,8,2,3,0,false,q,true,false,0.0-2.0-0.28-0.254-3.254,1,1,0,68,false,stim,false,0,1229.3999999761581,3,1,1,73276,WMM2,720058,false,false,871,image-keyboard-response,11
true,8,0,3,0,true,q,false,true,0.0-2.0-0.28-0.255-3.255,1,1,0,81,false,stim,false,0,968.3000000715256,3,1,1,73276,WMM2,722538,false,false,874,image-keyboard-response,12
true,8,0,3,0,true,q,false,true,0.0-2.0-0.28-0.256-3.256,1,1,0,81,false,stim,false,0,965.6999999284744,3,1,1,73276,WMM2,725018,false,false,877,image-keyboard-response,13
true,8,2,3,2,true,d,false,true,0.0-2.0-0.28-0.257-3.257,1,1,0,68,false,stim,false,0,629.6999999284744,3,0,2,73276,WMM2,727162,false,false,880,image-keyboard-response,14
true,8,2,3,2,true,d,false,true,0.0-2.0-0.28-0.258-3.258,1,1,0,68,false,stim,false,0,905.5,3,0,2,73276,WMM2,729594,false,false,883,image-keyboard-response,15
true,8,1,3,1,true,z,false,true,0.0-2.0-0.28-0.259-3.259,1,1,0,90,false,stim,false,1,847.2000000476837,3,1,0,73276,WMM2,731946,false,false,886,image-keyboard-response,16
true,8,1,3,1,true,z,false,false,0.0-2.0-0.28-0.260-3.260,1,1,0,90,false,stim,false,1,1142.3999999761581,3,1,0,73276,WMM2,734602,false,true,889,image-keyboard-response,17
true,8,0,3,0,true,q,false,true,0.0-2.0-0.29-0.261-3.261,1,1,0,81,false,stim,false,0,625.1000000238419,3,1,1,73276,WMM2,736746,false,false,892,image-keyboard-response,18
true,8,1,3,1,true,z,false,true,0.0-2.0-0.29-0.262-3.262,1,1,0,90,false,stim,false,1,1119.0,3,1,0,73276,WMM2,739370,false,false,895,image-keyboard-response,19
true,8,2,3,2,true,d,false,true,0.0-2.0-0.29-0.263-3.263,1,1,0,68,false,stim,false,0,986.0,3,0,2,73276,WMM2,741866,false,false,898,image-keyboard-response,20
true,8,0,3,0,true,q,false,false,0.0-2.0-0.29-0.264-3.264,1,1,0,81,false,stim,false,0,613.2999999523163,3,1,1,73276,WMM2,744010,false,true,901,image-keyboard-response,21
true,8,0,3,0,true,q,false,true,0.0-2.0-0.29-0.265-3.265,1,1,0,81,false,stim,false,0,653.6999999284744,3,1,1,73276,WMM2,746186,false,false,904,image-keyboard-response,22
true,8,2,3,2,true,d,false,false,0.0-2.0-0.29-0.266-3.266,1,1,0,68,false,stim,false,0,766.9000000953674,3,1,2,73276,WMM2,748474,false,true,907,image-keyboard-response,23
true,8,1,3,1,true,z,false,true,0.0-2.0-0.29-0.267-3.267,1,1,0,90,false,stim,false,1,1067.6000000238419,3,0,0,73276,WMM2,751050,false,false,910,image-keyboard-response,24
true,8,1,3,1,true,z,false,true,0.0-2.0-0.29-0.268-3.268,1,1,0,90,false,stim,false,1,882.6000000238419,3,0,0,73276,WMM2,753450,false,false,913,image-keyboard-response,25
true,8,2,3,2,true,d,false,true,0.0-2.0-0.29-0.269-3.269,1,1,0,68,false,stim,false,0,804.4000000953674,3,1,2,73276,WMM2,755770,false,false,916,image-keyboard-response,26
true,8,0,3,0,true,q,false,true,0.0-2.0-0.30-0.270-3.270,1,1,0,81,false,stim,false,0,794.6000000238419,3,1,1,73276,WMM2,758074,false,false,919,image-keyboard-response,27
true,8,2,3,2,true,d,false,true,0.0-2.0-0.30-0.271-3.271,1,1,0,68,false,stim,false,0,610.2000000476837,3,1,2,73276,WMM2,760202,false,false,922,image-keyboard-response,28
true,8,2,3,2,true,d,false,true,0.0-2.0-0.30-0.272-3.272,1,1,0,68,false,stim,false,0,661.5,3,1,2,73276,WMM2,762378,false,false,925,image-keyboard-response,29
true,8,0,3,0,true,q,false,false,0.0-2.0-0.30-0.273-3.273,1,1,0,81,false,stim,false,0,488.90000009536743,3,1,1,73276,WMM2,764394,false,true,928,image-keyboard-response,30
true,9,1,3,2,false,d,false,false,0.0-2.0-0.30-0.274-3.274,0,1,1,90,true,stim,true,1,1011.1999999284744,3,0,0,73276,WMM2,766923,false,false,931,image-keyboard-response,1
true,9,1,3,2,false,d,false,false,0.0-2.0-0.30-0.275-3.275,0,1,1,90,false,stim,true,1,1007.5,3,0,0,73276,WMM2,769451,false,false,934,image-keyboard-response,2
true,9,0,3,2,false,d,true,false,0.0-2.0-0.30-0.276-3.276,0,1,1,81,false,stim,false,1,890.2000000476837,3,0,0,73276,WMM2,771850,false,false,937,image-keyboard-response,3
true,9,2,3,2,true,d,false,true,0.0-2.0-0.30-0.277-3.277,0,1,1,68,false,stim,false,2,1052.7000000476837,3,1,2,73276,WMM2,774410,false,false,940,image-keyboard-response,4
true,9,1,3,0,false,q,true,false,0.0-2.0-0.30-0.278-3.278,0,1,1,90,false,stim,false,0,1174.3000000715256,3,1,1,73276,WMM2,777098,false,false,943,image-keyboard-response,5
true,9,2,3,2,true,d,false,true,0.0-2.0-0.31-0.279-3.279,0,1,1,68,false,stim,false,1,985.5,3,0,0,73276,WMM2,779610,false,false,946,image-keyboard-response,6
true,9,2,3,0,false,q,true,false,0.0-2.0-0.31-0.280-3.280,0,1,1,68,false,stim,false,0,855.1999999284744,3,1,1,73276,WMM2,781978,false,false,949,image-keyboard-response,7
true,9,0,3,0,true,q,false,true,0.0-2.0-0.31-0.281-3.281,0,1,1,81,false,stim,false,0,930.3999999761581,3,1,1,73276,WMM2,784426,false,false,952,image-keyboard-response,8
true,9,1,3,2,false,d,true,false,0.0-2.0-0.31-0.282-3.282,0,1,1,90,false,stim,false,2,1272.2999999523163,3,1,2,73276,WMM2,787226,false,false,955,image-keyboard-response,9
true,9,2,3,2,true,d,false,true,0.0-2.0-0.31-0.283-3.283,0,1,1,68,false,stim,false,1,829.8000000715256,3,0,0,73276,WMM2,789578,false,false,958,image-keyboard-response,10
true,9,0,3,0,true,q,false,true,0.0-2.0-0.31-0.284-3.284,0,1,1,81,false,stim,false,0,577.3999999761581,3,1,1,73276,WMM2,791674,false,false,961,image-keyboard-response,11
true,9,2,3,2,true,d,false,true,0.0-2.0-0.31-0.285-3.285,0,1,1,68,false,stim,false,1,1090.7000000476837,3,0,0,73276,WMM2,794282,false,false,964,image-keyboard-response,12
true,9,2,3,2,true,d,false,true,0.0-2.0-0.31-0.286-3.286,0,1,1,68,false,stim,false,2,726.3999999761581,3,1,2,73276,WMM2,796522,false,false,967,image-keyboard-response,13
true,9,2,3,2,true,d,false,true,0.0-2.0-0.31-0.287-3.287,0,1,1,68,false,stim,false,2,969.8000000715256,3,1,2,73276,WMM2,799018,false,false,970,image-keyboard-response,14
true,9,2,3,2,true,d,false,true,0.0-2.0-0.32-0.288-3.288,0,1,1,68,false,stim,false,1,796.6999999284744,3,0,0,73276,WMM2,801338,false,false,973,image-keyboard-response,15
true,9,2,3,2,true,d,false,true,0.0-2.0-0.32-0.289-3.289,0,1,1,68,false,stim,false,1,818.5,3,0,0,73276,WMM2,803674,false,false,976,image-keyboard-response,16
true,9,2,3,2,true,d,false,true,0.0-2.0-0.32-0.290-3.290,0,1,1,68,false,stim,false,1,703.8999999761581,3,0,0,73276,WMM2,805882,false,false,979,image-keyboard-response,17
true,9,2,3,2,true,d,false,true,0.0-2.0-0.32-0.291-3.291,0,1,1,68,false,stim,false,2,1089.5,3,1,2,73276,WMM2,808490,false,false,982,image-keyboard-response,18
true,9,0,3,0,true,q,false,true,0.0-2.0-0.32-0.292-3.292,0,1,1,81,false,stim,false,0,641.0,3,1,1,73276,WMM2,810650,false,false,985,image-keyboard-response,19
true,9,2,3,2,true,d,false,false,0.0-2.0-0.32-0.293-3.293,0,1,1,68,false,stim,false,2,644.2999999523163,3,1,2,73276,WMM2,812810,false,true,988,image-keyboard-response,20
true,9,0,3,0,true,q,false,true,0.0-2.0-0.32-0.294-3.294,0,1,1,81,false,stim,false,0,928.5,3,0,1,73276,WMM2,815258,false,false,991,image-keyboard-response,21
true,9,2,3,2,true,d,false,false,0.0-2.0-0.32-0.295-3.295,0,1,1,68,false,stim,false,2,636.8999999761581,3,1,2,73276,WMM2,817418,false,true,994,image-keyboard-response,22
true,9,0,3,0,true,q,false,true,0.0-2.0-0.32-0.296-3.296,0,1,1,81,false,stim,false,0,673.3000000715256,3,0,1,73276,WMM2,819610,false,false,997,image-keyboard-response,23
true,9,2,3,2,true,d,false,true,0.0-2.0-0.33-0.297-3.297,0,1,1,68,false,stim,false,2,613.8999999761581,3,1,2,73276,WMM2,821738,false,false,1000,image-keyboard-response,24
true,9,2,3,2,true,d,false,true,0.0-2.0-0.33-0.298-3.298,0,1,1,68,false,stim,false,1,651.0999999046326,3,0,0,73276,WMM2,823914,false,false,1003,image-keyboard-response,25
true,9,0,3,0,true,q,false,true,0.0-2.0-0.33-0.299-3.299,0,1,1,81,false,stim,false,0,647.1000000238419,3,0,1,73276,WMM2,826074,false,false,1006,image-keyboard-response,26
true,9,0,3,0,true,q,false,true,0.0-2.0-0.33-0.300-3.300,0,1,1,81,false,stim,false,0,724.3999999761581,3,0,1,73276,WMM2,828314,false,false,1009,image-keyboard-response,27
true,9,2,3,2,true,d,false,true,0.0-2.0-0.33-0.301-3.301,0,1,1,68,false,stim,false,1,720.9000000953674,3,0,0,73276,WMM2,830554,false,false,1012,image-keyboard-response,28
true,9,2,3,2,true,d,false,true,0.0-2.0-0.33-0.302-3.302,0,1,1,68,false,stim,false,2,493.5,3,1,2,73276,WMM2,832554,false,false,1015,image-keyboard-response,29
true,9,2,3,2,true,d,false,true,0.0-2.0-0.33-0.303-3.303,0,1,1,68,false,stim,false,1,1141.6999999284744,3,0,0,73276,WMM2,835210,false,false,1018,image-keyboard-response,30
true,10,2,1,2,true,d,false,true,0.0-2.0-0.33-0.304-3.304,0,0,1,68,true,stim,false,2,520.9000000953674,3,1,2,73276,WMM2,837258,false,false,1021,image-keyboard-response,1
true,10,2,1,1,false,z,true,false,0.0-2.0-0.33-0.305-3.305,0,0,1,68,false,stim,false,0,1328.5,3,0,1,73276,WMM2,840106,false,false,1024,image-keyboard-response,2
true,10,0,1,1,false,z,false,true,0.0-2.0-0.34-0.306-3.306,0,0,1,81,false,stim,true,0,660.1000000238419,3,0,1,73276,WMM2,842282,false,true,1027,image-keyboard-response,3
true,10,0,1,1,false,z,false,false,0.0-2.0-0.34-0.307-3.307,0,0,1,81,false,stim,true,0,625.5,3,0,1,73276,WMM2,844426,false,false,1030,image-keyboard-response,4
true,10,2,1,0,false,q,false,false,0.0-2.0-0.34-0.308-3.308,0,0,1,68,false,stim,true,2,626.8000000715256,3,0,0,73276,WMM2,846570,false,false,1033,image-keyboard-response,5
true,10,2,1,0,false,q,false,false,0.0-2.0-0.34-0.309-3.309,0,0,1,68,false,stim,true,2,557.0,3,0,0,73276,WMM2,848634,false,false,1036,image-keyboard-response,6
true,10,2,1,2,true,d,false,true,0.0-2.0-0.34-0.310-3.310,0,0,1,68,false,stim,false,2,1467.4000000953674,3,1,2,73276,WMM2,851626,false,false,1039,image-keyboard-response,7
true,10,2,1,2,true,d,false,true,0.0-2.0-0.34-0.311-3.311,0,0,1,68,false,stim,false,2,611.0,3,1,2,73276,WMM2,853754,false,false,1042,image-keyboard-response,8
true,10,1,1,0,false,q,true,false,0.0-2.0-0.34-0.312-3.312,0,0,1,90,false,stim,false,2,886.3999999761581,3,0,0,73276,WMM2,856154,false,false,1045,image-keyboard-response,9
true,10,2,1,2,true,d,false,true,0.0-2.0-0.34-0.313-3.313,0,0,1,68,false,stim,false,2,707.8999999761581,3,1,2,73276,WMM2,858378,false,false,1048,image-keyboard-response,10
true,10,0,1,1,false,z,false,true,0.0-2.0-0.34-0.314-3.314,0,0,1,81,false,stim,true,0,1085.1000000238419,3,0,1,73276,WMM2,860986,false,true,1051,image-keyboard-response,11
true,10,0,1,0,true,q,false,false,0.0-2.0-0.35-0.315-3.315,0,0,1,81,false,stim,false,2,491.89999997615814,3,0,0,73276,WMM2,862986,false,true,1054,image-keyboard-response,12
true,10,2,1,0,false,q,false,false,0.0-2.0-0.35-0.316-3.316,0,0,1,68,false,stim,true,2,1230.0,3,0,0,73276,WMM2,865722,false,false,1057,image-keyboard-response,13
true,10,0,1,1,false,z,false,false,0.0-2.0-0.35-0.317-3.317,0,0,1,81,false,stim,true,0,2091.5,3,0,1,73276,WMM2,869338,false,false,1060,image-keyboard-response,14
true,10,2,1,2,true,d,false,true,0.0-2.0-0.35-0.318-3.318,0,0,1,68,false,stim,false,2,727.5,3,1,2,73276,WMM2,871578,false,false,1063,image-keyboard-response,15
true,10,1,1,1,true,z,false,false,0.0-2.0-0.35-0.319-3.319,0,0,1,90,false,stim,false,0,514.3999999761581,3,0,1,73276,WMM2,873610,false,true,1066,image-keyboard-response,16
true,10,2,1,2,true,d,false,true,0.0-2.0-0.35-0.320-3.320,0,0,1,68,false,stim,false,2,674.5,3,1,2,73276,WMM2,875801,false,false,1069,image-keyboard-response,17
true,10,2,1,1,false,z,true,false,0.0-2.0-0.35-0.321-3.321,0,0,1,68,false,stim,false,0,425.39999997615814,3,0,1,73276,WMM2,877754,false,false,1072,image-keyboard-response,18
true,10,0,1,0,true,q,false,true,0.0-2.0-0.35-0.322-3.322,0,0,1,81,false,stim,false,2,881.0,3,0,0,73276,WMM2,880154,false,false,1075,image-keyboard-response,19
true,10,2,1,2,true,d,false,true,0.0-2.0-0.35-0.323-3.323,0,0,1,68,false,stim,false,2,733.2999999523163,3,1,2,73276,WMM2,882393,false,false,1078,image-keyboard-response,20
true,10,0,1,0,true,q,false,true,0.0-2.0-0.36-0.324-3.324,0,0,1,81,false,stim,false,2,763.8999999761581,3,0,0,73276,WMM2,884682,false,false,1081,image-keyboard-response,21
true,10,0,1,0,true,q,false,true,0.0-2.0-0.36-0.325-3.325,0,0,1,81,false,stim,false,2,657.2999999523163,3,0,0,73276,WMM2,886858,false,false,1084,image-keyboard-response,22
true,10,2,1,1,false,z,true,false,0.0-2.0-0.36-0.326-3.326,0,0,1,68,false,stim,false,0,994.4000000953674,3,0,1,73276,WMM2,889370,false,false,1087,image-keyboard-response,23
true,10,2,1,2,true,d,false,true,0.0-2.0-0.36-0.327-3.327,0,0,1,68,false,stim,false,2,670.8999999761581,3,1,2,73276,WMM2,891562,false,false,1090,image-keyboard-response,24
true,10,2,1,2,true,d,false,false,0.0-2.0-0.36-0.328-3.328,0,0,1,68,false,stim,false,2,1017.3999999761581,3,1,2,73276,WMM2,894106,false,true,1093,image-keyboard-response,25
true,10,0,1,1,false,z,false,false,0.0-2.0-0.36-0.329-3.329,0,0,1,81,false,stim,true,0,1033.2000000476837,3,0,1,73276,WMM2,896650,false,false,1096,image-keyboard-response,26
true,10,2,1,2,true,d,false,true,0.0-2.0-0.36-0.330-3.330,0,0,1,68,false,stim,false,2,690.5,3,1,2,73276,WMM2,898858,false,false,1099,image-keyboard-response,27
true,10,0,1,0,true,q,false,true,0.0-2.0-0.36-0.331-3.331,0,0,1,81,false,stim,false,2,759.9000000953674,3,0,0,73276,WMM2,901146,false,false,1102,image-keyboard-response,28
true,10,1,1,1,true,z,false,true,0.0-2.0-0.36-0.332-3.332,0,0,1,90,false,stim,false,0,1125.5,3,0,1,73276,WMM2,903786,false,false,1105,image-keyboard-response,29
true,10,0,1,0,true,q,false,true,0.0-2.0-0.37-0.333-3.333,0,0,1,81,false,stim,false,2,894.5,3,0,0,73276,WMM2,906202,false,false,1108,image-keyboard-response,30
true,10,0,1,0,true,q,false,true,0.0-2.0-0.37-0.334-3.334,0,0,1,81,false,stim,false,2,713.3000000715256,3,0,0,73276,WMM2,908426,false,false,1111,image-keyboard-response,31
true,10,1,1,1,true,z,false,false,0.0-2.0-0.37-0.335-3.335,0,0,1,90,false,stim,false,0,835.7000000476837,3,0,1,73276,WMM2,910778,false,true,1114,image-keyboard-response,32
true,10,2,1,2,true,d,false,true,0.0-2.0-0.37-0.336-3.336,0,0,1,68,false,stim,false,2,846.2000000476837,3,1,2,73276,WMM2,913130,false,false,1117,image-keyboard-response,33
true,10,0,1,1,false,z,false,false,0.0-2.0-0.37-0.337-3.337,0,0,1,81,false,stim,true,0,1297.7999999523163,3,1,1,73276,WMM2,915946,false,false,1120,image-keyboard-response,34
true,10,2,1,2,true,d,false,true,0.0-2.0-0.37-0.338-3.338,0,0,1,68,false,stim,false,2,799.7000000476837,3,1,2,73276,WMM2,918265,false,false,1123,image-keyboard-response,35
true,10,1,1,1,true,z,false,true,0.0-2.0-0.37-0.339-3.339,0,0,1,90,false,stim,false,0,832.7000000476837,3,1,1,73276,WMM2,920602,false,false,1126,image-keyboard-response,36
true,10,2,1,2,true,d,false,true,0.0-2.0-0.37-0.340-3.340,0,0,1,68,false,stim,false,2,841.1000000238419,3,1,2,73276,WMM2,922969,false,false,1129,image-keyboard-response,37
true,10,0,1,0,true,q,false,true,0.0-2.0-0.37-0.341-3.341,0,0,1,81,false,stim,false,2,672.5,3,0,0,73276,WMM2,925162,false,false,1132,image-keyboard-response,38
true,10,2,1,2,true,d,false,true,0.0-2.0-0.38-0.342-3.342,0,0,1,68,false,stim,false,2,776.2000000476837,3,1,2,73276,WMM2,927466,false,false,1135,image-keyboard-response,39
true,10,1,1,1,true,z,false,true,0.0-2.0-0.38-0.343-3.343,0,0,1,90,false,stim,false,0,696.8999999761581,3,1,1,73276,WMM2,929689,false,false,1138,image-keyboard-response,40
true,10,0,1,0,true,q,false,true,0.0-2.0-0.38-0.344-3.344,0,0,1,81,false,stim,false,2,910.6000000238419,3,0,0,73276,WMM2,932106,false,false,1141,image-keyboard-response,41
true,10,2,1,2,true,d,false,true,0.0-2.0-0.38-0.345-3.345,0,0,1,68,false,stim,false,2,905.1000000238419,3,1,2,73276,WMM2,934521,false,false,1144,image-keyboard-response,42
true,11,0,3,1,false,z,false,false,0.0-2.0-0.38-0.346-3.346,0,1,1,81,true,stim,true,0,889.6000000238419,3,0,0,73276,WMM2,936937,false,false,1147,image-keyboard-response,1
true,11,2,3,2,true,d,false,true,0.0-2.0-0.38-0.347-3.347,0,1,1,68,false,stim,false,2,609.0,3,1,2,73276,WMM2,939065,false,false,1150,image-keyboard-response,2
true,11,0,3,1,false,z,false,false,0.0-2.0-0.38-0.348-3.348,0,1,1,81,false,stim,true,0,610.3999999761581,3,0,0,73276,WMM2,941193,false,false,1153,image-keyboard-response,3
true,11,1,3,1,true,z,false,false,0.0-2.0-0.38-0.349-3.349,0,1,1,90,false,stim,false,1,766.8000000715256,3,1,1,73276,WMM2,943466,false,true,1156,image-keyboard-response,4
true,11,1,3,1,true,z,false,true,0.0-2.0-0.38-0.350-3.350,0,1,1,90,false,stim,false,1,944.7999999523163,3,1,1,73276,WMM2,945929,false,false,1159,image-keyboard-response,5
true,11,2,3,2,true,d,false,true,0.0-2.0-0.39-0.351-3.351,0,1,1,68,false,stim,false,2,750.5,3,1,2,73276,WMM2,948201,false,false,1162,image-keyboard-response,6
true,11,1,3,1,true,z,false,true,0.0-2.0-0.39-0.352-3.352,0,1,1,90,false,stim,false,1,721.0,3,1,1,73276,WMM2,950441,false,false,1165,image-keyboard-response,7
true,11,1,3,1,true,z,false,true,0.0-2.0-0.39-0.353-3.353,0,1,1,90,false,stim,false,0,843.2000000476837,3,0,0,73276,WMM2,952793,false,false,1168,image-keyboard-response,8
true,11,1,3,1,true,z,false,true,0.0-2.0-0.39-0.354-3.354,0,1,1,90,false,stim,false,0,759.5,3,0,0,73276,WMM2,955065,false,false,1171,image-keyboard-response,9
true,11,1,3,1,true,z,false,true,0.0-2.0-0.39-0.355-3.355,0,1,1,90,false,stim,false,1,873.1000000238419,3,1,1,73276,WMM2,957449,false,false,1174,image-keyboard-response,10
true,11,1,3,1,true,z,false,false,0.0-2.0-0.39-0.356-3.356,0,1,1,90,false,stim,false,1,913.2999999523163,3,1,1,73276,WMM2,959881,false,true,1177,image-keyboard-response,11
true,11,2,3,2,true,d,false,true,0.0-2.0-0.39-0.357-3.357,0,1,1,68,false,stim,false,2,997.0,3,1,2,73276,WMM2,962393,false,false,1180,image-keyboard-response,12
true,11,2,3,2,true,d,false,true,0.0-2.0-0.39-0.358-3.358,0,1,1,68,false,stim,false,2,920.7000000476837,3,1,2,73276,WMM2,964841,false,false,1183,image-keyboard-response,13
true,11,1,3,1,true,z,false,true,0.0-2.0-0.39-0.359-3.359,0,1,1,90,false,stim,false,0,595.0,3,0,0,73276,WMM2,966953,false,false,1186,image-keyboard-response,14
true,11,1,3,1,true,z,false,true,0.0-2.0-0.40-0.360-3.360,0,1,1,90,false,stim,false,1,703.1999999284744,3,1,1,73276,WMM2,969161,false,false,1189,image-keyboard-response,15
true,11,1,3,1,true,z,false,true,0.0-2.0-0.40-0.361-3.361,0,1,1,90,false,stim,false,1,1049.6000000238419,3,1,1,73276,WMM2,971721,false,false,1192,image-keyboard-response,16
true,11,2,3,2,true,d,false,false,0.0-2.0-0.40-0.362-3.362,0,1,1,68,false,stim,false,2,696.0,3,1,2,73276,WMM2,973929,false,true,1195,image-keyboard-response,17
true,11,1,3,1,true,z,false,true,0.0-2.0-0.40-0.363-3.363,0,1,1,90,false,stim,false,0,571.4000000953674,3,0,0,73276,WMM2,976025,false,false,1198,image-keyboard-response,18
true,11,2,3,2,true,d,false,true,0.0-2.0-0.40-0.364-3.364,0,1,1,68,false,stim,false,2,681.1999999284744,3,1,2,73276,WMM2,978217,false,false,1201,image-keyboard-response,19
true,11,2,3,2,true,d,false,true,0.0-2.0-0.40-0.365-3.365,0,1,1,68,false,stim,false,2,578.0,3,1,2,73276,WMM2,980313,false,false,1204,image-keyboard-response,20
true,11,1,3,1,true,z,false,true,0.0-2.0-0.40-0.366-3.366,0,1,1,90,false,stim,false,0,645.6000000238419,3,0,0,73276,WMM2,982473,false,false,1207,image-keyboard-response,21
true,11,1,3,1,true,z,false,true,0.0-2.0-0.40-0.367-3.367,0,1,1,90,false,stim,false,1,984.7999999523163,3,1,1,73276,WMM2,984985,false,false,1210,image-keyboard-response,22
true,11,1,3,1,true,z,false,true,0.0-2.0-0.40-0.368-3.368,0,1,1,90,false,stim,false,0,409.2000000476837,3,0,0,73276,WMM2,986905,false,false,1213,image-keyboard-response,23
true,11,1,3,1,true,z,false,true,0.0-2.0-0.41-0.369-3.369,0,1,1,90,false,stim,false,0,609.5,3,0,0,73276,WMM2,989033,false,false,1216,image-keyboard-response,24
true,11,1,3,1,true,z,false,true,0.0-2.0-0.41-0.370-3.370,0,1,1,90,false,stim,false,1,629.7000000476837,3,1,1,73276,WMM2,991177,false,false,1219,image-keyboard-response,25
true,11,1,3,1,true,z,false,true,0.0-2.0-0.41-0.371-3.371,0,1,1,90,false,stim,false,1,568.0,3,1,1,73276,WMM2,993257,false,false,1222,image-keyboard-response,26
true,11,1,3,1,true,z,false,true,0.0-2.0-0.41-0.372-3.372,0,1,1,90,false,stim,false,0,537.3999999761581,3,0,0,73276,WMM2,995305,false,false,1225,image-keyboard-response,27
true,11,2,3,2,true,d,false,true,0.0-2.0-0.41-0.373-3.373,0,1,1,68,false,stim,false,2,598.5,3,1,2,73276,WMM2,997417,false,false,1228,image-keyboard-response,28
true,11,2,3,2,true,d,false,false,0.0-2.0-0.41-0.374-3.374,0,1,1,68,false,stim,false,2,559.8999999761581,3,1,2,73276,WMM2,999497,false,true,1231,image-keyboard-response,29
true,11,1,3,1,true,z,false,true,0.0-2.0-0.41-0.375-3.375,0,1,1,90,false,stim,false,0,625.1000000238419,3,0,0,73276,WMM2,1001641,false,false,1234,image-keyboard-response,30
true,12,2,4,2,true,d,false,true,0.0-2.0-0.41-0.376-3.376,0,1,1,68,true,stim,false,2,670.2000000476837,3,1,2,73276,WMM2,1003817,false,false,1237,image-keyboard-response,1
true,12,1,4,1,true,z,false,true,0.0-2.0-0.41-0.377-3.377,0,1,1,90,false,stim,false,1,785.8000000715256,3,1,1,73276,WMM2,1006121,false,false,1240,image-keyboard-response,2
true,12,1,4,1,true,z,false,true,0.0-2.0-0.42-0.378-3.378,0,1,1,90,false,stim,false,1,499.10000002384186,3,0,0,73276,WMM2,1008137,false,false,1243,image-keyboard-response,3
true,12,1,4,1,true,z,false,true,0.0-2.0-0.42-0.379-3.379,0,1,1,90,false,stim,false,1,710.2000000476837,3,1,1,73276,WMM2,1010361,false,false,1246,image-keyboard-response,4
true,12,2,4,2,true,d,false,true,0.0-2.0-0.42-0.380-3.380,0,1,1,68,false,stim,false,2,626.7000000476837,3,1,2,73276,WMM2,1012505,false,false,1249,image-keyboard-response,5
true,12,1,4,1,true,z,false,false,0.0-2.0-0.42-0.381-3.381,0,1,1,90,false,stim,false,1,687.0,3,1,1,73276,WMM2,1014697,false,true,1252,image-keyboard-response,6
true,12,1,4,1,true,z,false,true,0.0-2.0-0.42-0.382-3.382,0,1,1,90,false,stim,false,1,447.5,3,0,0,73276,WMM2,1016649,false,false,1255,image-keyboard-response,7
true,12,1,4,1,true,z,false,true,0.0-2.0-0.42-0.383-3.383,0,1,1,90,false,stim,false,1,629.6000000238419,3,0,0,73276,WMM2,1018793,false,false,1258,image-keyboard-response,8
true,12,2,4,2,true,d,false,true,0.0-2.0-0.42-0.384-3.384,0,1,1,68,false,stim,false,2,1280.7000000476837,3,1,2,73276,WMM2,1021593,false,false,1261,image-keyboard-response,9
true,12,2,4,2,true,d,false,true,0.0-2.0-0.42-0.385-3.385,0,1,1,68,false,stim,false,2,688.3999999761581,3,1,2,73276,WMM2,1023801,false,false,1264,image-keyboard-response,10
true,12,1,4,1,true,z,false,true,0.0-2.0-0.42-0.386-3.386,0,1,1,90,false,stim,false,1,599.5,3,1,1,73276,WMM2,1025913,false,false,1267,image-keyboard-response,11
true,12,1,4,1,true,z,false,true,0.0-2.0-0.43-0.387-3.387,0,1,1,90,false,stim,false,1,667.3000000715256,3,1,1,73276,WMM2,1028105,false,false,1270,image-keyboard-response,12
true,12,1,4,1,true,z,false,true,0.0-2.0-0.43-0.388-3.388,0,1,1,90,false,stim,false,1,601.5,3,0,0,73276,WMM2,1030217,false,false,1273,image-keyboard-response,13
true,12,1,4,1,true,z,false,true,0.0-2.0-0.43-0.389-3.389,0,1,1,90,false,stim,false,1,482.59999990463257,3,0,0,73276,WMM2,1032217,false,false,1276,image-keyboard-response,14
true,12,2,4,2,true,d,false,true,0.0-2.0-0.43-0.390-3.390,0,1,1,68,false,stim,false,2,703.1000000238419,3,1,2,73276,WMM2,1034441,false,false,1279,image-keyboard-response,15
true,12,1,4,1,true,z,false,false,0.0-2.0-0.43-0.391-3.391,0,1,1,90,false,stim,false,1,608.2999999523163,3,0,0,73276,WMM2,1036569,false,true,1282,image-keyboard-response,16
true,12,1,4,1,true,z,false,true,0.0-2.0-0.43-0.392-3.392,0,1,1,90,false,stim,false,1,657.6000000238419,3,1,1,73276,WMM2,1038745,false,false,1285,image-keyboard-response,17
true,12,2,4,2,true,d,false,true,0.0-2.0-0.43-0.393-3.393,0,1,1,68,false,stim,false,2,667.8999999761581,3,1,2,73276,WMM2,1040921,false,false,1288,image-keyboard-response,18
true,12,2,4,2,true,d,false,false,0.0-2.0-0.43-0.394-3.394,0,1,1,68,false,stim,false,2,994.3999999761581,3,1,2,73276,WMM2,1043433,false,true,1291,image-keyboard-response,19
true,12,1,4,1,true,z,false,true,0.0-2.0-0.43-0.395-3.395,0,1,1,90,false,stim,false,1,459.89999997615814,3,1,1,73276,WMM2,1045417,false,false,1294,image-keyboard-response,20
true,12,2,4,1,false,z,true,false,0.0-2.0-0.44-0.396-3.396,0,1,1,68,false,stim,false,1,815.0,3,0,0,73276,WMM2,1047753,false,false,1297,image-keyboard-response,21
true,12,1,4,1,true,z,false,true,0.0-2.0-0.44-0.397-3.397,0,1,1,90,false,stim,false,1,850.2999999523163,3,1,1,73276,WMM2,1050121,false,false,1300,image-keyboard-response,22
true,12,2,4,2,true,d,false,true,0.0-2.0-0.44-0.398-3.398,0,1,1,68,false,stim,false,2,701.6999999284744,3,0,2,73276,WMM2,1052344,false,false,1303,image-keyboard-response,23
true,12,2,4,2,true,d,false,true,0.0-2.0-0.44-0.399-3.399,0,1,1,68,false,stim,false,2,691.0999999046326,3,0,2,73276,WMM2,1054553,false,false,1306,image-keyboard-response,24
true,12,2,4,2,true,d,false,true,0.0-2.0-0.44-0.400-3.400,0,1,1,68,false,stim,false,2,698.5,3,0,2,73276,WMM2,1056760,false,false,1309,image-keyboard-response,25
true,12,0,4,1,false,z,true,false,0.0-2.0-0.44-0.401-3.401,0,1,1,81,false,stim,false,1,623.7000000476837,3,0,0,73276,WMM2,1058904,false,false,1312,image-keyboard-response,26
true,12,0,4,1,false,z,true,false,0.0-2.0-0.44-0.402-3.402,0,1,1,81,false,stim,false,1,1034.3999999761581,3,0,0,73276,WMM2,1061449,false,false,1315,image-keyboard-response,27
true,12,1,4,1,true,z,false,true,0.0-2.0-0.44-0.403-3.403,0,1,1,90,false,stim,false,1,882.7999999523163,3,1,1,73276,WMM2,1063849,false,false,1318,image-keyboard-response,28
true,12,1,4,1,true,z,false,true,0.0-2.0-0.44-0.404-3.404,0,1,1,90,false,stim,false,1,629.8000000715256,3,1,1,73276,WMM2,1065993,false,false,1321,image-keyboard-response,29
true,12,2,4,1,false,z,true,false,0.0-2.0-0.45-0.405-3.405,0,1,1,68,false,stim,false,1,665.1999999284744,3,0,0,73276,WMM2,1068169,false,false,1324,image-keyboard-response,30
true,13,1,1,1,true,z,false,true,0.0-2.0-0.45-0.406-3.406,0,1,0,90,true,stim,false,1,720.8000000715256,3,1,1,73276,WMM2,1070409,false,false,1327,image-keyboard-response,1
true,13,1,1,2,false,d,false,false,0.0-2.0-0.45-0.407-3.407,0,1,0,90,false,stim,true,1,482.2999999523163,3,0,0,73276,WMM2,1072409,false,false,1330,image-keyboard-response,2
true,13,2,1,1,false,z,false,false,0.0-2.0-0.45-0.408-3.408,0,1,0,68,false,stim,true,2,867.5,3,0,2,73276,WMM2,1074793,false,false,1333,image-keyboard-response,3
true,13,1,1,1,true,z,false,true,0.0-2.0-0.45-0.409-3.409,0,1,0,90,false,stim,false,1,944.9000000953674,3,1,1,73276,WMM2,1077257,false,false,1336,image-keyboard-response,4
true,13,2,1,1,false,z,false,false,0.0-2.0-0.45-0.410-3.410,0,1,0,68,false,stim,true,2,800.3000000715256,3,0,2,73276,WMM2,1079561,false,false,1339,image-keyboard-response,5
true,13,1,1,1,true,z,false,true,0.0-2.0-0.45-0.411-3.411,0,1,0,90,false,stim,false,1,748.6000000238419,3,1,1,73276,WMM2,1081816,false,false,1342,image-keyboard-response,6
true,13,0,1,2,false,d,true,false,0.0-2.0-0.45-0.412-3.412,0,1,0,81,false,stim,false,1,589.2000000476837,3,0,0,73276,WMM2,1083928,false,false,1345,image-keyboard-response,7
true,13,1,1,1,true,z,false,true,0.0-2.0-0.45-0.413-3.413,0,1,0,90,false,stim,false,2,906.2000000476837,3,0,2,73276,WMM2,1086344,false,false,1348,image-keyboard-response,8
true,13,1,1,1,true,z,false,true,0.0-2.0-0.46-0.414-3.414,0,1,0,90,false,stim,false,2,744.0,3,0,2,73276,WMM2,1088616,false,false,1351,image-keyboard-response,9
true,13,1,1,1,true,z,false,true,0.0-2.0-0.46-0.415-3.415,0,1,0,90,false,stim,false,2,683.2000000476837,3,0,2,73276,WMM2,1090824,false,false,1354,image-keyboard-response,10
true,13,1,1,1,true,z,false,true,0.0-2.0-0.46-0.416-3.416,0,1,0,90,false,stim,false,1,512.6000000238419,3,1,1,73276,WMM2,1092856,false,false,1357,image-keyboard-response,11
true,13,0,1,2,false,d,true,false,0.0-2.0-0.46-0.417-3.417,0,1,0,81,false,stim,false,1,578.0,3,0,0,73276,WMM2,1094953,false,false,1360,image-keyboard-response,12
true,13,1,1,1,true,z,false,true,0.0-2.0-0.46-0.418-3.418,0,1,0,90,false,stim,false,1,601.0,3,1,1,73276,WMM2,1097064,false,false,1363,image-keyboard-response,13
true,13,1,1,2,false,d,false,false,0.0-2.0-0.46-0.419-3.419,0,1,0,90,false,stim,true,1,430.39999997615814,3,0,0,73276,WMM2,1099016,false,false,1366,image-keyboard-response,14
true,13,2,1,2,true,d,false,true,0.0-2.0-0.46-0.420-3.420,0,1,0,68,false,stim,false,1,485.10000002384186,3,0,0,73276,WMM2,1101016,false,false,1369,image-keyboard-response,15
true,13,1,1,1,true,z,false,true,0.0-2.0-0.46-0.421-3.421,0,1,0,90,false,stim,false,2,672.7000000476837,3,0,2,73276,WMM2,1103208,false,false,1372,image-keyboard-response,16
true,13,1,1,1,true,z,false,true,0.0-2.0-0.46-0.422-3.422,0,1,0,90,false,stim,false,1,583.3000000715256,3,1,1,73276,WMM2,1105304,false,false,1375,image-keyboard-response,17
true,13,1,1,1,true,z,false,true,0.0-2.0-0.47-0.423-3.423,0,1,0,90,false,stim,false,2,463.39999997615814,3,0,2,73276,WMM2,1107272,false,false,1378,image-keyboard-response,18
true,13,2,1,2,true,d,false,true,0.0-2.0-0.47-0.424-3.424,0,1,0,68,false,stim,false,1,498.60000002384186,3,0,0,73276,WMM2,1109288,false,false,1381,image-keyboard-response,19
true,13,1,1,1,true,z,false,true,0.0-2.0-0.47-0.425-3.425,0,1,0,90,false,stim,false,1,540.7999999523163,3,1,1,73276,WMM2,1111336,false,false,1384,image-keyboard-response,20
true,13,1,1,2,false,d,false,false,0.0-2.0-0.47-0.426-3.426,0,1,0,90,false,stim,true,1,543.0,3,1,0,73276,WMM2,1113384,false,false,1387,image-keyboard-response,21
true,13,1,1,1,true,z,false,true,0.0-2.0-0.47-0.427-3.427,0,1,0,90,false,stim,false,2,514.2999999523163,3,0,2,73276,WMM2,1115416,false,false,1390,image-keyboard-response,22
true,13,1,1,1,true,z,false,true,0.0-2.0-0.47-0.428-3.428,0,1,0,90,false,stim,false,1,472.39999997615814,3,1,1,73276,WMM2,1117400,false,false,1393,image-keyboard-response,23
true,13,2,1,2,true,d,false,true,0.0-2.0-0.47-0.429-3.429,0,1,0,68,false,stim,false,1,537.6999999284744,3,1,0,73276,WMM2,1119448,false,false,1396,image-keyboard-response,24
true,13,1,1,1,true,z,false,true,0.0-2.0-0.47-0.430-3.430,0,1,0,90,false,stim,false,1,529.0,3,1,1,73276,WMM2,1121496,false,false,1399,image-keyboard-response,25
true,13,1,1,1,true,z,false,true,0.0-2.0-0.47-0.431-3.431,0,1,0,90,false,stim,false,2,569.2999999523163,3,0,2,73276,WMM2,1123592,false,false,1402,image-keyboard-response,26
true,13,1,1,1,true,z,false,true,0.0-2.0-0.48-0.432-3.432,0,1,0,90,false,stim,false,1,624.6000000238419,3,1,1,73276,WMM2,1125736,false,false,1405,image-keyboard-response,27
true,13,1,1,1,true,z,false,true,0.0-2.0-0.48-0.433-3.433,0,1,0,90,false,stim,false,2,570.8999999761581,3,0,2,73276,WMM2,1127816,false,false,1408,image-keyboard-response,28
true,13,1,1,1,true,z,false,true,0.0-2.0-0.48-0.434-3.434,0,1,0,90,false,stim,false,1,518.9000000953674,3,1,1,73276,WMM2,1129848,false,false,1411,image-keyboard-response,29
true,13,1,1,1,true,z,false,false,0.0-2.0-0.48-0.435-3.435,0,1,0,90,false,stim,false,2,1018.2999999523163,3,0,2,73276,WMM2,1132392,false,true,1414,image-keyboard-response,30
true,14,0,0,1,false,z,true,false,0.0-2.0-0.48-0.436-3.436,1,1,0,81,true,stim,false,1,2007.1000000238419,3,1,1,73276,WMM2,1177528,false,false,1459,image-keyboard-response,1
true,14,1,0,1,true,z,false,false,0.0-2.0-0.48-0.437-3.437,1,1,0,90,false,stim,false,1,685.8999999761581,3,0,2,73276,WMM2,1179720,false,true,1462,image-keyboard-response,2
true,14,2,0,2,true,d,false,true,0.0-2.0-0.48-0.438-3.438,1,1,0,68,false,stim,false,2,969.6000000238419,3,1,0,73276,WMM2,1182200,false,false,1465,image-keyboard-response,3
true,14,2,0,2,true,d,false,true,0.0-2.0-0.48-0.439-3.439,1,1,0,68,false,stim,false,2,738.1000000238419,3,1,0,73276,WMM2,1184456,false,false,1468,image-keyboard-response,4
true,14,2,0,2,true,d,false,true,0.0-2.0-0.48-0.440-3.440,1,1,0,68,false,stim,false,2,642.5,3,1,0,73276,WMM2,1186616,false,false,1471,image-keyboard-response,5
true,14,1,0,1,true,z,false,true,0.0-2.0-0.49-0.441-3.441,1,1,0,90,false,stim,false,1,622.7999999523163,3,0,2,73276,WMM2,1188760,false,false,1474,image-keyboard-response,6
true,14,2,0,2,true,d,false,true,0.0-2.0-0.49-0.442-3.442,1,1,0,68,false,stim,false,2,783.1000000238419,3,1,0,73276,WMM2,1191048,false,false,1477,image-keyboard-response,7
true,14,2,0,2,true,d,false,true,0.0-2.0-0.49-0.443-3.443,1,1,0,68,false,stim,false,2,670.6000000238419,3,1,0,73276,WMM2,1193224,false,false,1480,image-keyboard-response,8
true,14,2,0,1,false,z,true,false,0.0-2.0-0.49-0.444-3.444,1,1,0,68,false,stim,false,1,668.8999999761581,3,0,2,73276,WMM2,1195416,false,false,1483,image-keyboard-response,9
true,14,1,0,1,true,z,false,true,0.0-2.0-0.49-0.445-3.445,1,1,0,90,false,stim,false,1,754.0999999046326,3,1,1,73276,WMM2,1197688,false,false,1486,image-keyboard-response,10
true,14,1,0,1,true,z,false,true,0.0-2.0-0.49-0.446-3.446,1,1,0,90,false,stim,false,1,574.6000000238419,3,0,2,73276,WMM2,1199768,false,false,1489,image-keyboard-response,11
true,14,1,0,1,true,z,false,false,0.0-2.0-0.49-0.447-3.447,1,1,0,90,false,stim,false,1,755.7999999523163,3,1,1,73276,WMM2,1202040,false,true,1492,image-keyboard-response,12
true,14,2,0,2,true,d,false,true,0.0-2.0-0.49-0.448-3.448,1,1,0,68,false,stim,false,2,745.2999999523163,3,1,0,73276,WMM2,1204296,false,false,1495,image-keyboard-response,13
true,14,1,0,1,true,z,false,false,0.0-2.0-0.49-0.449-3.449,1,1,0,90,false,stim,false,1,681.6000000238419,3,1,1,73276,WMM2,1206504,false,true,1498,image-keyboard-response,14
true,14,1,0,1,true,z,false,true,0.0-2.0-0.50-0.450-3.450,1,1,0,90,false,stim,false,1,587.7999999523163,3,1,1,73276,WMM2,1208616,false,false,1501,image-keyboard-response,15
true,14,2,0,2,true,d,false,true,0.0-2.0-0.50-0.451-3.451,1,1,0,68,false,stim,false,2,586.2999999523163,3,1,0,73276,WMM2,1210728,false,false,1504,image-keyboard-response,16
true,14,1,0,1,true,z,false,true,0.0-2.0-0.50-0.452-3.452,1,1,0,90,false,stim,false,1,792.5,3,0,2,73276,WMM2,1213032,false,false,1507,image-keyboard-response,17
true,14,1,0,1,true,z,false,true,0.0-2.0-0.50-0.453-3.453,1,1,0,90,false,stim,false,1,526.8000000715256,3,0,2,73276,WMM2,1215064,false,false,1510,image-keyboard-response,18
true,14,2,0,2,true,d,false,true,0.0-2.0-0.50-0.454-3.454,1,1,0,68,false,stim,false,2,624.1999999284744,3,1,0,73276,WMM2,1217192,false,false,1513,image-keyboard-response,19
true,14,1,0,1,true,z,false,true,0.0-2.0-0.50-0.455-3.455,1,1,0,90,false,stim,false,1,689.5,3,0,2,73276,WMM2,1219400,false,false,1516,image-keyboard-response,20
true,14,1,0,1,true,z,false,true,0.0-2.0-0.50-0.456-3.456,1,1,0,90,false,stim,false,1,649.7000000476837,3,1,1,73276,WMM2,1221560,false,false,1519,image-keyboard-response,21
true,14,2,0,2,true,d,false,true,0.0-2.0-0.50-0.457-3.457,1,1,0,68,false,stim,false,2,706.1999999284744,3,1,0,73276,WMM2,1223784,false,false,1522,image-keyboard-response,22
true,14,1,0,1,true,z,false,true,0.0-2.0-0.50-0.458-3.458,1,1,0,90,false,stim,false,1,901.3999999761581,3,1,1,73276,WMM2,1226199,false,false,1525,image-keyboard-response,23
true,14,1,0,1,true,z,false,true,0.0-2.0-0.51-0.459-3.459,1,1,0,90,false,stim,false,1,465.90000009536743,3,0,2,73276,WMM2,1228184,false,false,1528,image-keyboard-response,24
true,14,2,0,2,true,d,false,true,0.0-2.0-0.51-0.460-3.460,1,1,0,68,false,stim,false,2,695.0,3,1,0,73276,WMM2,1230391,false,false,1531,image-keyboard-response,25
true,14,1,0,1,true,z,false,true,0.0-2.0-0.51-0.461-3.461,1,1,0,90,false,stim,false,1,735.2999999523163,3,1,1,73276,WMM2,1232648,false,false,1534,image-keyboard-response,26
true,14,2,0,2,true,d,false,true,0.0-2.0-0.51-0.462-3.462,1,1,0,68,false,stim,false,2,656.8000000715256,3,1,0,73276,WMM2,1234824,false,false,1537,image-keyboard-response,27
true,14,1,0,1,true,z,false,false,0.0-2.0-0.51-0.463-3.463,1,1,0,90,false,stim,false,1,936.1000000238419,3,1,1,73276,WMM2,1237288,false,true,1540,image-keyboard-response,28
true,14,1,0,1,true,z,false,true,0.0-2.0-0.51-0.464-3.464,1,1,0,90,false,stim,false,1,1430.6999999284744,3,1,1,73276,WMM2,1240232,false,false,1543,image-keyboard-response,29
true,14,2,0,2,true,d,false,true,0.0-2.0-0.51-0.465-3.465,1,1,0,68,false,stim,false,2,604.5,3,1,0,73276,WMM2,1242343,false,false,1546,image-keyboard-response,30
true,15,1,4,1,true,z,false,true,0.0-2.0-0.51-0.466-3.466,1,1,0,90,true,stim,false,1,776.8000000715256,3,0,2,73276,WMM2,1244648,false,false,1549,image-keyboard-response,1
true,15,1,4,1,true,z,false,true,0.0-2.0-0.51-0.467-3.467,1,1,0,90,false,stim,false,1,539.7999999523163,3,0,2,73276,WMM2,1246711,false,false,1552,image-keyboard-response,2
true,15,1,4,1,true,z,false,false,0.0-2.0-0.52-0.468-3.468,1,1,0,90,false,stim,false,1,559.2999999523163,3,1,1,73276,WMM2,1248791,false,true,1555,image-keyboard-response,3
true,15,1,4,1,true,z,false,true,0.0-2.0-0.52-0.469-3.469,1,1,0,90,false,stim,false,1,480.59999990463257,3,0,2,73276,WMM2,1250791,false,false,1558,image-keyboard-response,4
true,15,2,4,2,true,d,false,true,0.0-2.0-0.52-0.470-3.470,1,1,0,68,false,stim,false,2,545.8999999761581,3,1,0,73276,WMM2,1252855,false,false,1561,image-keyboard-response,5
true,15,1,4,1,true,z,false,false,0.0-2.0-0.52-0.471-3.471,1,1,0,90,false,stim,false,1,457.3000000715256,3,0,2,73276,WMM2,1254823,false,true,1564,image-keyboard-response,6
true,15,2,4,1,false,z,true,true,0.0-2.0-0.52-0.472-3.472,1,1,0,68,false,stim,false,1,759.2999999523163,3,1,1,73276,WMM2,1257095,false,true,1567,image-keyboard-response,7
true,15,2,4,2,true,d,false,false,0.0-2.0-0.52-0.473-3.473,1,1,0,68,false,stim,false,2,936.7000000476837,3,1,0,73276,WMM2,1259543,false,true,1570,image-keyboard-response,8
true,15,1,4,2,false,d,true,false,0.0-2.0-0.52-0.474-3.474,1,1,0,90,false,stim,false,2,481.40000009536743,3,1,0,73276,WMM2,1261543,false,false,1573,image-keyboard-response,9
true,15,2,4,1,false,z,true,true,0.0-2.0-0.52-0.475-3.475,1,1,0,68,false,stim,false,1,918.5,3,1,1,73276,WMM2,1263975,false,true,1576,image-keyboard-response,10
true,15,2,4,1,false,z,true,false,0.0-2.0-0.52-0.476-3.476,1,1,0,68,false,stim,false,1,976.7999999523163,3,0,2,73276,WMM2,1266471,false,false,1579,image-keyboard-response,11
true,15,0,4,2,false,d,true,false,0.0-2.0-0.53-0.477-3.477,1,1,0,81,false,stim,false,2,977.3999999761581,3,1,0,73276,WMM2,1268967,false,false,1582,image-keyboard-response,12
true,15,2,4,1,false,z,true,false,0.0-2.0-0.53-0.478-3.478,1,1,0,68,false,stim,false,1,1788.7000000476837,3,0,2,73276,WMM2,1272263,false,false,1585,image-keyboard-response,13
true,15,2,4,1,false,z,true,false,0.0-2.0-0.53-0.479-3.479,1,1,0,68,false,stim,false,1,539.8999999761581,3,1,1,73276,WMM2,1274311,false,false,1588,image-keyboard-response,14
true,15,1,4,2,false,d,true,false,0.0-2.0-0.53-0.480-3.480,1,1,0,90,false,stim,false,2,1085.2999999523163,3,1,0,73276,WMM2,1276903,false,false,1591,image-keyboard-response,15
true,15,1,4,1,true,z,false,true,0.0-2.0-0.53-0.481-3.481,1,1,0,90,false,stim,false,1,1093.5,3,0,2,73276,WMM2,1279511,false,false,1594,image-keyboard-response,16
true,15,1,4,1,true,z,false,true,0.0-2.0-0.53-0.482-3.482,1,1,0,90,false,stim,false,1,580.3999999761581,3,1,1,73276,WMM2,1281607,false,false,1597,image-keyboard-response,17
true,15,2,4,2,true,d,false,true,0.0-2.0-0.53-0.483-3.483,1,1,0,68,false,stim,false,2,1646.8999999761581,3,1,0,73276,WMM2,1284775,false,false,1600,image-keyboard-response,18
true,15,1,4,1,true,z,false,false,0.0-2.0-0.53-0.484-3.484,1,1,0,90,false,stim,false,1,658.1000000238419,3,1,1,73276,WMM2,1286967,false,true,1603,image-keyboard-response,19
true,15,1,4,1,true,z,false,true,0.0-2.0-0.53-0.485-3.485,1,1,0,90,false,stim,false,1,491.7999999523163,3,0,2,73276,WMM2,1288983,false,false,1606,image-keyboard-response,20
true,15,2,4,2,true,d,false,true,0.0-2.0-0.54-0.486-3.486,1,1,0,68,false,stim,false,2,554.1999999284744,3,1,0,73276,WMM2,1291047,false,false,1609,image-keyboard-response,21
true,15,1,4,1,true,z,false,true,0.0-2.0-0.54-0.487-3.487,1,1,0,90,false,stim,false,1,690.2999999523163,3,1,2,73276,WMM2,1293255,false,false,1612,image-keyboard-response,22
true,15,1,4,1,true,z,false,true,0.0-2.0-0.54-0.488-3.488,1,1,0,90,false,stim,false,1,814.5,3,1,2,73276,WMM2,1295575,false,false,1615,image-keyboard-response,23
true,15,1,4,1,true,z,false,true,0.0-2.0-0.54-0.489-3.489,1,1,0,90,false,stim,false,1,662.1000000238419,3,1,1,73276,WMM2,1297751,false,false,1618,image-keyboard-response,24
true,15,2,4,2,true,d,false,true,0.0-2.0-0.54-0.490-3.490,1,1,0,68,false,stim,false,2,609.5,3,0,0,73276,WMM2,1299879,false,false,1621,image-keyboard-response,25
true,15,1,4,2,false,d,true,false,0.0-2.0-0.54-0.491-3.491,1,1,0,90,false,stim,false,2,837.5,3,0,0,73276,WMM2,1302231,false,false,1624,image-keyboard-response,26
true,15,1,4,1,true,z,false,true,0.0-2.0-0.54-0.492-3.492,1,1,0,90,false,stim,false,1,577.1000000238419,3,1,1,73276,WMM2,1304327,false,false,1627,image-keyboard-response,27
true,15,1,4,1,true,z,false,true,0.0-2.0-0.54-0.493-3.493,1,1,0,90,false,stim,false,1,624.6000000238419,3,1,2,73276,WMM2,1306471,false,false,1630,image-keyboard-response,28
true,15,1,4,1,true,z,false,true,0.0-2.0-0.54-0.494-3.494,1,1,0,90,false,stim,false,1,659.7000000476837,3,1,1,73276,WMM2,1308647,false,false,1633,image-keyboard-response,29
true,15,1,4,1,true,z,false,true,0.0-2.0-0.55-0.495-3.495,1,1,0,90,false,stim,false,1,510.60000002384186,3,1,1,73276,WMM2,1310679,false,false,1636,image-keyboard-response,30
true,15,1,4,1,true,z,false,true,0.0-2.0-0.55-0.496-3.496,1,1,0,90,false,stim,false,1,607.7999999523163,3,1,2,73276,WMM2,1312807,false,false,1639,image-keyboard-response,31
true,16,1,3,1,true,z,false,true,0.0-2.0-0.55-0.497-3.497,0,1,1,90,true,stim,false,1,853.6000000238419,3,1,1,73276,WMM2,1315175,false,false,1642,image-keyboard-response,1
true,16,2,3,0,false,q,false,false,0.0-2.0-0.55-0.498-3.498,0,1,1,68,false,stim,true,2,626.0999999046326,3,0,0,73276,WMM2,1317319,false,false,1645,image-keyboard-response,2
true,16,1,3,1,true,z,false,true,0.0-2.0-0.55-0.499-3.499,0,1,1,90,false,stim,false,1,535.2000000476837,3,1,2,73276,WMM2,1319367,false,false,1648,image-keyboard-response,3
true,16,2,3,0,false,q,false,false,0.0-2.0-0.55-0.500-3.500,0,1,1,68,false,stim,true,2,589.5,3,0,0,73276,WMM2,1321479,false,false,1651,image-keyboard-response,4
true,16,1,3,1,true,z,false,true,0.0-2.0-0.55-0.501-3.501,0,1,1,90,false,stim,false,1,750.8999999761581,3,1,1,73276,WMM2,1323735,false,false,1654,image-keyboard-response,5
true,16,0,3,0,true,q,false,true,0.0-2.0-0.55-0.502-3.502,0,1,1,81,false,stim,false,2,550.2000000476837,3,0,0,73276,WMM2,1325799,false,false,1657,image-keyboard-response,6
true,16,1,3,1,true,z,false,false,0.0-2.0-0.55-0.503-3.503,0,1,1,90,false,stim,false,1,619.6000000238419,3,1,2,73276,WMM2,1327943,false,true,1660,image-keyboard-response,7
true,16,0,3,0,true,q,false,true,0.0-2.0-0.56-0.504-3.504,0,1,1,81,false,stim,false,2,640.7000000476837,3,0,0,73276,WMM2,1330103,false,false,1663,image-keyboard-response,8
true,16,0,3,0,true,q,false,true,0.0-2.0-0.56-0.505-3.505,0,1,1,81,false,stim,false,2,685.1000000238419,3,0,0,73276,WMM2,1332295,false,false,1666,image-keyboard-response,9
true,16,1,3,1,true,z,false,false,0.0-2.0-0.56-0.506-3.506,0,1,1,90,false,stim,false,1,609.2999999523163,3,1,2,73276,WMM2,1334423,false,true,1669,image-keyboard-response,10
true,16,1,3,1,true,z,false,true,0.0-2.0-0.56-0.507-3.507,0,1,1,90,false,stim,false,1,496.60000002384186,3,1,1,73276,WMM2,1336439,false,false,1672,image-keyboard-response,11
true,16,1,3,1,true,z,false,true,0.0-2.0-0.56-0.508-3.508,0,1,1,90,false,stim,false,1,690.1000000238419,3,1,1,73276,WMM2,1338647,false,false,1675,image-keyboard-response,12
true,16,1,3,1,true,z,false,false,0.0-2.0-0.56-0.509-3.509,0,1,1,90,false,stim,false,1,933.2999999523163,3,1,2,73276,WMM2,1341095,false,true,1678,image-keyboard-response,13
true,16,0,3,0,true,q,false,true,0.0-2.0-0.56-0.510-3.510,0,1,1,81,false,stim,false,2,374.60000002384186,3,0,0,73276,WMM2,1342983,false,false,1681,image-keyboard-response,14
true,16,1,3,1,true,z,false,true,0.0-2.0-0.56-0.511-3.511,0,1,1,90,false,stim,false,1,665.7999999523163,3,1,1,73276,WMM2,1345175,false,false,1684,image-keyboard-response,15
true,16,0,3,1,false,z,true,true,0.0-2.0-0.56-0.512-3.512,0,1,1,81,false,stim,false,1,1183.1999999284744,3,1,2,73276,WMM2,1347863,false,true,1687,image-keyboard-response,16
true,16,1,3,1,true,z,false,false,0.0-2.0-0.57-0.513-3.513,0,1,1,90,false,stim,false,1,635.7999999523163,3,1,1,73276,WMM2,1350007,false,true,1690,image-keyboard-response,17
true,16,0,3,1,false,z,true,true,0.0-2.0-0.57-0.514-3.514,0,1,1,81,false,stim,false,1,936.1000000238419,3,1,2,73276,WMM2,1352455,false,true,1693,image-keyboard-response,18
true,16,0,3,1,false,z,true,false,0.0-2.0-0.57-0.515-3.515,0,1,1,81,false,stim,false,1,923.6999999284744,3,1,2,73276,WMM2,1354903,false,false,1696,image-keyboard-response,19
true,16,1,3,1,true,z,false,false,0.0-2.0-0.57-0.516-3.516,0,1,1,90,false,stim,false,1,920.6000000238419,3,1,1,73276,WMM2,1357351,false,true,1699,image-keyboard-response,20
true,16,0,3,0,true,q,false,true,0.0-2.0-0.57-0.517-3.517,0,1,1,81,false,stim,false,2,737.5999999046326,3,0,0,73276,WMM2,1359607,false,false,1702,image-keyboard-response,21
true,16,0,3,0,true,q,false,false,0.0-2.0-0.57-0.518-3.518,0,1,1,81,false,stim,false,2,659.1000000238419,3,0,0,73276,WMM2,1361783,false,true,1705,image-keyboard-response,22
true,16,0,3,1,false,z,true,false,0.0-2.0-0.57-0.519-3.519,0,1,1,81,false,stim,false,1,925.3999999761581,3,1,1,73276,WMM2,1364231,false,false,1708,image-keyboard-response,23
true,16,0,3,1,false,z,true,false,0.0-2.0-0.57-0.520-3.520,0,1,1,81,false,stim,false,1,612.7000000476837,3,1,2,73276,WMM2,1366359,false,false,1711,image-keyboard-response,24
true,16,0,3,0,true,q,false,true,0.0-2.0-0.57-0.521-3.521,0,1,1,81,false,stim,false,2,536.1999999284744,3,0,0,73276,WMM2,1368423,false,false,1714,image-keyboard-response,25
true,16,0,3,1,false,z,true,false,0.0-2.0-0.58-0.522-3.522,0,1,1,81,false,stim,false,1,733.0999999046326,3,1,2,73276,WMM2,1370679,false,false,1717,image-keyboard-response,26
true,16,2,3,0,false,q,false,false,0.0-2.0-0.58-0.523-3.523,0,1,1,68,false,stim,true,2,1328.6999999284744,3,0,0,73276,WMM2,1373527,false,false,1720,image-keyboard-response,27
true,16,0,3,1,false,z,true,false,0.0-2.0-0.58-0.524-3.524,0,1,1,81,false,stim,false,1,1085.2000000476837,3,1,1,73276,WMM2,1376119,false,false,1723,image-keyboard-response,28
true,16,2,3,1,false,z,true,false,0.0-2.0-0.58-0.525-3.525,0,1,1,68,false,stim,false,1,1238.0999999046326,3,1,2,73276,WMM2,1378887,false,false,1726,image-keyboard-response,29
true,16,0,3,0,true,q,false,true,0.0-2.0-0.58-0.526-3.526,0,1,1,81,false,stim,false,2,667.4000000953674,3,0,0,73276,WMM2,1381078,false,false,1729,image-keyboard-response,30
true,16,1,3,1,true,z,false,true,0.0-2.0-0.58-0.527-3.527,0,1,1,90,false,stim,false,1,476.7999999523163,3,1,2,73276,WMM2,1383079,false,false,1732,image-keyboard-response,31
true,16,1,3,1,true,z,false,true,0.0-2.0-0.58-0.528-3.528,0,1,1,90,false,stim,false,1,674.3999999761581,3,1,1,73276,WMM2,1385271,false,false,1735,image-keyboard-response,32
true,16,0,3,0,true,q,false,true,0.0-2.0-0.58-0.529-3.529,0,1,1,81,false,stim,false,2,645.6000000238419,3,0,0,73276,WMM2,1387446,false,false,1738,image-keyboard-response,33
true,16,1,3,1,true,z,false,true,0.0-2.0-0.58-0.530-3.530,0,1,1,90,false,stim,false,1,518.0999999046326,3,1,1,73276,WMM2,1389479,false,false,1741,image-keyboard-response,34
true,16,1,3,1,true,z,false,true,0.0-2.0-0.59-0.531-3.531,0,1,1,90,false,stim,false,1,526.2999999523163,3,1,2,73276,WMM2,1391527,false,false,1744,image-keyboard-response,35
true,16,0,3,0,true,q,false,true,0.0-2.0-0.59-0.532-3.532,0,1,1,81,false,stim,false,2,879.5,3,1,0,73276,WMM2,1393926,false,false,1747,image-keyboard-response,36
true,16,1,3,1,true,z,false,true,0.0-2.0-0.59-0.533-3.533,0,1,1,90,false,stim,false,1,538.0,3,1,2,73276,WMM2,1395975,false,false,1750,image-keyboard-response,37
true,16,1,3,1,true,z,false,true,0.0-2.0-0.59-0.534-3.534,0,1,1,90,false,stim,false,1,770.1000000238419,3,0,1,73276,WMM2,1398262,false,false,1753,image-keyboard-response,38
true,16,0,3,0,true,q,false,true,0.0-2.0-0.59-0.535-3.535,0,1,1,81,false,stim,false,2,1187.6000000238419,3,1,0,73276,WMM2,1400966,false,false,1756,image-keyboard-response,39
true,16,1,3,1,true,z,false,true,0.0-2.0-0.59-0.536-3.536,0,1,1,90,false,stim,false,1,564.8999999761581,3,1,2,73276,WMM2,1403046,false,false,1759,image-keyboard-response,40
true,16,1,3,1,true,z,false,false,0.0-2.0-0.59-0.537-3.537,0,1,1,90,false,stim,false,1,790.5,3,0,1,73276,WMM2,1405350,false,true,1762,image-keyboard-response,41
true,16,0,3,1,false,z,true,false,0.0-2.0-0.59-0.538-3.538,0,1,1,81,false,stim,false,1,794.0,3,0,1,73276,WMM2,1407670,false,false,1765,image-keyboard-response,42
true,16,0,3,0,true,q,false,true,0.0-2.0-0.59-0.539-3.539,0,1,1,81,false,stim,false,2,749.2000000476837,3,1,0,73276,WMM2,1409942,false,false,1768,image-keyboard-response,43
true,16,1,3,1,true,z,false,true,0.0-2.0-0.60-0.540-3.540,0,1,1,90,false,stim,false,1,571.6000000238419,3,0,1,73276,WMM2,1412022,false,false,1771,image-keyboard-response,44
true,16,0,3,0,true,q,false,true,0.0-2.0-0.60-0.541-3.541,0,1,1,81,false,stim,false,2,943.0,3,1,0,73276,WMM2,1414470,false,false,1774,image-keyboard-response,45
true,17,1,3,2,false,d,false,false,0.0-2.0-0.60-0.542-3.542,1,0,1,90,true,stim,true,1,585.5,3,0,1,73276,WMM2,1416582,false,false,1777,image-keyboard-response,1
true,17,0,3,0,true,q,false,false,0.0-2.0-0.60-0.543-3.543,1,0,1,81,false,stim,false,0,616.0,3,1,0,73276,WMM2,1418711,false,true,1780,image-keyboard-response,2
true,17,1,3,1,true,z,false,false,0.0-2.0-0.60-0.544-3.544,1,0,1,90,false,stim,false,1,642.0,3,1,2,73276,WMM2,1420870,false,true,1783,image-keyboard-response,3
true,17,0,3,0,true,q,false,true,0.0-2.0-0.60-0.545-3.545,1,0,1,81,false,stim,false,0,589.5,3,1,0,73276,WMM2,1422966,false,false,1786,image-keyboard-response,4
true,17,1,3,2,false,d,false,false,0.0-2.0-0.60-0.546-3.546,1,0,1,90,false,stim,true,1,799.2999999523163,3,0,1,73276,WMM2,1425270,false,false,1789,image-keyboard-response,5
true,17,1,3,1,true,z,false,true,0.0-2.0-0.60-0.547-3.547,1,0,1,90,false,stim,false,1,445.60000002384186,3,1,2,73276,WMM2,1427222,false,false,1792,image-keyboard-response,6
true,17,1,3,1,true,z,false,false,0.0-2.0-0.60-0.548-3.548,1,0,1,90,false,stim,false,1,627.2000000476837,3,1,2,73276,WMM2,1429366,false,true,1795,image-keyboard-response,7
true,17,0,3,2,false,d,true,false,0.0-2.0-0.61-0.549-3.549,1,0,1,81,false,stim,false,1,1176.5,3,0,1,73276,WMM2,1432070,false,false,1798,image-keyboard-response,8
true,17,0,3,0,true,q,false,true,0.0-2.0-0.61-0.550-3.550,1,0,1,81,false,stim,false,0,913.6000000238419,3,1,0,73276,WMM2,1434502,false,false,1801,image-keyboard-response,9
true,17,1,3,1,true,z,false,false,0.0-2.0-0.61-0.551-3.551,1,0,1,90,false,stim,false,1,693.7000000476837,3,1,2,73276,WMM2,1436710,false,true,1804,image-keyboard-response,10
true,17,1,3,2,false,d,false,false,0.0-2.0-0.61-0.552-3.552,1,0,1,90,false,stim,true,1,1030.7999999523163,3,0,1,73276,WMM2,1439254,false,false,1807,image-keyboard-response,11
true,17,0,3,0,true,q,false,true,0.0-2.0-0.61-0.553-3.553,1,0,1,81,false,stim,false,0,480.3000000715256,3,1,0,73276,WMM2,1441254,false,false,1810,image-keyboard-response,12
true,17,0,3,2,false,d,true,false,0.0-2.0-0.61-0.554-3.554,1,0,1,81,false,stim,false,1,452.59999990463257,3,0,1,73276,WMM2,1443222,false,false,1813,image-keyboard-response,13
true,17,0,3,1,false,z,true,false,0.0-2.0-0.61-0.555-3.555,1,0,1,81,false,stim,false,1,488.89999997615814,3,1,2,73276,WMM2,1445238,false,false,1816,image-keyboard-response,14
true,17,0,3,0,true,q,false,true,0.0-2.0-0.61-0.556-3.556,1,0,1,81,false,stim,false,0,672.0,3,1,0,73276,WMM2,1447430,false,false,1819,image-keyboard-response,15
true,17,2,3,1,false,z,true,false,0.0-2.0-0.61-0.557-3.557,1,0,1,68,false,stim,false,1,433.5,3,1,2,73276,WMM2,1449382,false,false,1822,image-keyboard-response,16
true,17,2,3,1,false,z,true,false,0.0-2.0-0.62-0.558-3.558,1,0,1,68,false,stim,false,1,914.7999999523163,3,1,2,73276,WMM2,1451814,false,false,1825,image-keyboard-response,17
true,17,0,3,0,true,q,false,false,0.0-2.0-0.62-0.559-3.559,1,0,1,81,false,stim,false,0,712.0,3,1,0,73276,WMM2,1454038,false,true,1828,image-keyboard-response,18
true,17,0,3,0,true,q,false,true,0.0-2.0-0.62-0.560-3.560,1,0,1,81,false,stim,false,0,818.4000000953674,3,1,0,73276,WMM2,1456374,false,false,1831,image-keyboard-response,19
true,17,0,3,0,true,q,false,true,0.0-2.0-0.62-0.561-3.561,1,0,1,81,false,stim,false,0,812.9000000953674,3,1,0,73276,WMM2,1458710,false,false,1834,image-keyboard-response,20
true,17,1,3,2,false,d,false,false,0.0-2.0-0.62-0.562-3.562,1,0,1,90,false,stim,true,1,919.3000000715256,3,0,1,73276,WMM2,1461142,false,false,1837,image-keyboard-response,21
true,17,0,3,2,false,d,true,false,0.0-2.0-0.62-0.563-3.563,1,0,1,81,false,stim,false,1,805.5999999046326,3,0,1,73276,WMM2,1463478,false,false,1840,image-keyboard-response,22
true,17,2,3,2,true,d,false,true,0.0-2.0-0.62-0.564-3.564,1,0,1,68,false,stim,false,1,544.2000000476837,3,0,1,73276,WMM2,1465542,false,false,1843,image-keyboard-response,23
true,17,1,3,1,true,z,false,true,0.0-2.0-0.62-0.565-3.565,1,0,1,90,false,stim,false,1,1447.3999999761581,3,1,2,73276,WMM2,1468502,false,false,1846,image-keyboard-response,24
true,17,1,3,1,true,z,false,true,0.0-2.0-0.62-0.566-3.566,1,0,1,90,false,stim,false,1,836.3999999761581,3,1,2,73276,WMM2,1470854,false,false,1849,image-keyboard-response,25
true,17,1,3,1,true,z,false,true,0.0-2.0-0.63-0.567-3.567,1,0,1,90,false,stim,false,1,781.8000000715256,3,1,2,73276,WMM2,1473158,false,false,1852,image-keyboard-response,26
true,17,0,3,0,true,q,false,true,0.0-2.0-0.63-0.568-3.568,1,0,1,81,false,stim,false,0,1519.0,3,1,0,73276,WMM2,1476198,false,false,1855,image-keyboard-response,27
true,17,2,3,2,true,d,false,true,0.0-2.0-0.63-0.569-3.569,1,0,1,68,false,stim,false,1,624.7000000476837,3,0,1,73276,WMM2,1478342,false,false,1858,image-keyboard-response,28
true,17,2,3,2,true,d,false,true,0.0-2.0-0.63-0.570-3.570,1,0,1,68,false,stim,false,1,562.2000000476837,3,1,1,73276,WMM2,1480422,false,false,1861,image-keyboard-response,29
true,17,0,3,0,true,q,false,true,0.0-2.0-0.63-0.571-3.571,1,0,1,81,false,stim,false,0,741.3000000715256,3,0,0,73276,WMM2,1482678,false,false,1864,image-keyboard-response,30
true,17,2,3,2,true,d,false,true,0.0-2.0-0.63-0.572-3.572,1,0,1,68,false,stim,false,1,680.7999999523163,3,1,1,73276,WMM2,1484886,false,false,1867,image-keyboard-response,31
true,17,1,3,1,true,z,false,true,0.0-2.0-0.63-0.573-3.573,1,0,1,90,false,stim,false,1,1360.3000000715256,3,0,2,73276,WMM2,1487766,false,false,1870,image-keyboard-response,32
true,17,1,3,1,true,z,false,true,0.0-2.0-0.63-0.574-3.574,1,0,1,90,false,stim,false,1,821.7000000476837,3,0,2,73276,WMM2,1490102,false,false,1873,image-keyboard-response,33
true,17,2,3,0,false,q,true,false,0.0-2.0-0.63-0.575-3.575,1,0,1,68,false,stim,false,0,1135.3999999761581,3,0,0,73276,WMM2,1492742,false,false,1876,image-keyboard-response,34
true,17,2,3,2,true,d,false,true,0.0-2.0-0.64-0.576-3.576,1,0,1,68,false,stim,false,1,1037.1000000238419,3,1,1,73276,WMM2,1495302,false,false,1879,image-keyboard-response,35
true,17,1,3,1,true,z,false,true,0.0-2.0-0.64-0.577-3.577,1,0,1,90,false,stim,false,1,1168.5,3,0,2,73276,WMM2,1497990,false,false,1882,image-keyboard-response,36
true,17,1,3,1,true,z,false,true,0.0-2.0-0.64-0.578-3.578,1,0,1,90,false,stim,false,1,936.2000000476837,3,0,2,73276,WMM2,1500454,false,false,1885,image-keyboard-response,37
true,17,0,3,0,true,q,false,true,0.0-2.0-0.64-0.579-3.579,1,0,1,81,false,stim,false,0,526.6000000238419,3,0,0,73276,WMM2,1502486,false,false,1888,image-keyboard-response,38
true,18,2,1,0,false,q,true,false,0.0-2.0-0.64-0.580-3.580,0,1,0,68,true,stim,false,1,1588.8999999761581,3,0,2,73276,WMM2,1505590,false,false,1891,image-keyboard-response,1
true,18,2,1,2,true,d,false,true,0.0-2.0-0.64-0.581-3.581,0,1,0,68,false,stim,false,2,1816.6000000238419,3,1,1,73276,WMM2,1508934,false,false,1894,image-keyboard-response,2
true,18,0,1,1,false,z,false,false,0.0-2.0-0.64-0.582-3.582,0,1,0,81,false,stim,true,0,1088.7999999523163,3,0,0,73276,WMM2,1511542,false,false,1897,image-keyboard-response,3
true,18,0,1,1,false,z,false,true,0.0-2.0-0.64-0.583-3.583,0,1,0,81,false,stim,true,0,532.0,3,0,0,73276,WMM2,1513590,false,true,1900,image-keyboard-response,4
true,18,2,1,2,true,d,false,false,0.0-2.0-0.64-0.584-3.584,0,1,0,68,false,stim,false,2,593.6999999284744,3,1,1,73276,WMM2,1515702,false,true,1903,image-keyboard-response,5
true,18,1,1,0,false,q,false,true,0.0-2.0-0.65-0.585-3.585,0,1,0,90,false,stim,true,1,1450.7999999523163,3,0,2,73276,WMM2,1518678,false,true,1906,image-keyboard-response,6
true,18,0,1,1,false,z,false,false,0.0-2.0-0.65-0.586-3.586,0,1,0,81,false,stim,true,0,800.3999999761581,3,0,0,73276,WMM2,1520998,false,false,1909,image-keyboard-response,7
true,18,2,1,2,true,d,false,true,0.0-2.0-0.65-0.587-3.587,0,1,0,68,false,stim,false,2,658.1999999284744,3,1,1,73276,WMM2,1523174,false,false,1912,image-keyboard-response,8
true,18,0,1,1,false,z,false,false,0.0-2.0-0.65-0.588-3.588,0,1,0,81,false,stim,true,0,565.5,3,0,0,73276,WMM2,1525254,false,false,1915,image-keyboard-response,9
true,18,1,1,0,false,q,false,false,0.0-2.0-0.65-0.589-3.589,0,1,0,90,false,stim,true,1,520.5,3,0,2,73276,WMM2,1527302,false,false,1918,image-keyboard-response,10
true,18,0,1,2,false,d,true,false,0.0-2.0-0.65-0.590-3.590,0,1,0,81,false,stim,false,2,1335.1000000238419,3,1,1,73276,WMM2,1530150,false,false,1921,image-keyboard-response,11
true,18,2,1,0,false,q,true,false,0.0-2.0-0.65-0.591-3.591,0,1,0,68,false,stim,false,1,874.8999999761581,3,0,2,73276,WMM2,1532534,false,false,1924,image-keyboard-response,12
true,18,2,1,2,true,d,false,true,0.0-2.0-0.65-0.592-3.592,0,1,0,68,false,stim,false,2,869.2999999523163,3,1,1,73276,WMM2,1534918,false,false,1927,image-keyboard-response,13
true,18,1,1,1,true,z,false,true,0.0-2.0-0.65-0.593-3.593,0,1,0,90,false,stim,false,0,716.5,3,0,0,73276,WMM2,1537141,false,false,1930,image-keyboard-response,14
true,18,1,1,1,true,z,false,true,0.0-2.0-0.66-0.594-3.594,0,1,0,90,false,stim,false,0,941.5,3,0,0,73276,WMM2,1539605,false,false,1933,image-keyboard-response,15
