answered,blockNum,choice,condition,corResp,correct,correct_response,explo,fb,internal_node_id,isStable_1,isStable_2,isStable_3,key_press,newBlock,part,persev,persevResp,rt,sessNum,stableAS,stimulus,subject,task,time_elapsed,training,trap,trial_index,trial_type,trialsInBlock
true,1,0,0,1,false,z,true,false,0.0-2.0-0.0-0.0-3.0,0,0,0,81,true,stim,false,-1,1181.5,0,0,0,75300,WMM1,585405,false,false,224,image-keyboard-response,1
true,1,1,0,1,true,z,false,true,0.0-2.0-0.0-0.1-3.1,0,0,0,90,false,stim,false,-1,941.6999999880791,0,0,0,75300,WMM1,587885,false,false,227,image-keyboard-response,2
true,1,2,0,2,true,d,false,true,0.0-2.0-0.0-0.2-3.2,0,0,0,68,false,stim,false,-1,785.2000000178814,0,0,2,75300,WMM1,590194,false,false,230,image-keyboard-response,3
true,1,0,0,2,false,d,true,false,0.0-2.0-0.0-0.3-3.3,0,0,0,81,false,stim,false,-1,703.8000000119209,0,0,1,75300,WMM1,592429,false,false,233,image-keyboard-response,4
true,1,1,0,1,true,z,false,true,0.0-2.0-0.0-0.4-3.4,0,0,0,90,false,stim,false,-1,924.2999999821186,0,0,0,75300,WMM1,594882,false,false,236,image-keyboard-response,5
true,1,2,0,2,true,d,false,true,0.0-2.0-0.0-0.5-3.5,0,0,0,68,false,stim,false,-1,515.7000000178814,0,0,2,75300,WMM1,596923,false,false,239,image-keyboard-response,6
true,1,2,0,2,true,d,false,true,0.0-2.0-0.0-0.6-3.6,0,0,0,68,false,stim,false,-1,657.0999999940395,0,0,2,75300,WMM1,599115,false,false,242,image-keyboard-response,7
true,1,1,0,2,false,d,true,false,0.0-2.0-0.0-0.7-3.7,0,0,0,90,false,stim,false,-1,1035.2000000178814,0,0,1,75300,WMM1,601676,false,false,245,image-keyboard-response,8
true,1,2,0,2,true,d,false,true,0.0-2.0-0.0-0.8-3.8,0,0,0,68,false,stim,false,-1,698.2000000178814,0,0,1,75300,WMM1,603909,false,false,248,image-keyboard-response,9
true,1,2,0,2,true,d,false,true,0.0-2.0-0.1-0.9-3.9,0,0,0,68,false,stim,false,-1,707.6999999880791,0,0,2,75300,WMM1,606149,false,false,251,image-keyboard-response,10
true,1,2,0,2,true,d,false,false,0.0-2.0-0.1-0.10-3.10,0,0,0,68,false,stim,false,-1,578.0999999940395,0,0,1,75300,WMM1,608253,false,true,254,image-keyboard-response,11
true,1,1,0,1,true,z,false,true,0.0-2.0-0.1-0.11-3.11,0,0,0,90,false,stim,false,-1,973.5999999940395,0,0,0,75300,WMM1,610749,false,false,257,image-keyboard-response,12
true,1,2,0,2,true,d,false,true,0.0-2.0-0.1-0.12-3.12,0,0,0,68,false,stim,false,-1,775.8000000119209,0,0,2,75300,WMM1,613050,false,false,260,image-keyboard-response,13
true,1,2,0,2,true,d,false,false,0.0-2.0-0.1-0.13-3.13,0,0,0,68,false,stim,false,-1,1831.300000011921,0,0,1,75300,WMM1,616425,false,true,263,image-keyboard-response,14
true,1,2,0,2,true,d,false,true,0.0-2.0-0.1-0.14-3.14,0,0,0,68,false,stim,false,-1,963.0,0,0,2,75300,WMM1,618911,false,false,266,image-keyboard-response,15
true,1,1,0,1,true,z,false,true,0.0-2.0-0.1-0.15-3.15,0,0,0,90,false,stim,false,-1,1006.8000000119209,0,0,0,75300,WMM1,621449,false,false,269,image-keyboard-response,16
true,1,1,0,1,true,z,false,true,0.0-2.0-0.1-0.16-3.16,0,0,0,90,false,stim,false,-1,632.0,0,0,0,75300,WMM1,623609,false,false,272,image-keyboard-response,17
true,1,1,0,2,false,d,true,false,0.0-2.0-0.1-0.17-3.17,0,0,0,90,false,stim,false,-1,905.4000000059605,0,0,1,75300,WMM1,626047,false,false,275,image-keyboard-response,18
true,1,0,0,2,false,d,true,false,0.0-2.0-0.2-0.18-3.18,0,0,0,81,false,stim,false,-1,666.4000000059605,0,0,1,75300,WMM1,628241,false,false,278,image-keyboard-response,19
true,1,2,0,2,true,d,false,true,0.0-2.0-0.2-0.19-3.19,0,0,0,68,false,stim,false,-1,744.9000000059605,0,0,2,75300,WMM1,630519,false,false,281,image-keyboard-response,20
true,1,2,0,2,true,d,false,true,0.0-2.0-0.2-0.20-3.20,0,0,0,68,false,stim,false,-1,414.80000001192093,0,0,2,75300,WMM1,632473,false,false,284,image-keyboard-response,21
true,1,1,0,1,true,z,false,true,0.0-2.0-0.2-0.21-3.21,0,0,0,90,false,stim,false,-1,1104.5999999940395,0,0,0,75300,WMM1,635113,false,false,287,image-keyboard-response,22
true,1,1,0,2,false,d,true,false,0.0-2.0-0.2-0.22-3.22,0,0,0,90,false,stim,false,-1,1039.4000000059605,0,0,1,75300,WMM1,637671,false,false,290,image-keyboard-response,23
true,1,0,0,2,false,d,true,false,0.0-2.0-0.2-0.23-3.23,0,0,0,81,false,stim,false,-1,871.4000000059605,0,0,1,75300,WMM1,640079,false,false,293,image-keyboard-response,24
true,1,1,0,1,true,z,false,true,0.0-2.0-0.2-0.24-3.24,0,0,0,90,false,stim,false,-1,830.6999999880791,0,0,0,75300,WMM1,642438,false,false,296,image-keyboard-response,25
true,1,1,0,1,true,z,false,true,0.0-2.0-0.2-0.25-3.25,0,0,0,90,false,stim,false,-1,666.4000000059605,0,0,0,75300,WMM1,644633,false,false,299,image-keyboard-response,26
true,1,2,0,2,true,d,false,true,0.0-2.0-0.2-0.26-3.26,0,0,0,68,false,stim,false,-1,643.2000000178814,0,0,2,75300,WMM1,646830,false,false,302,image-keyboard-response,27
true,1,2,0,2,true,d,false,true,0.0-2.0-0.3-0.27-3.27,0,0,0,68,false,stim,false,-1,941.0,0,0,2,75300,WMM1,649298,false,false,305,image-keyboard-response,28
true,1,1,0,1,true,z,false,true,0.0-2.0-0.3-0.28-3.28,0,0,0,90,false,stim,false,-1,793.0,0,0,0,75300,WMM1,651610,false,false,308,image-keyboard-response,29
true,1,1,0,1,true,z,false,true,0.0-2.0-0.3-0.29-3.29,0,0,0,90,false,stim,false,-1,568.3000000119209,0,0,0,75300,WMM1,653709,false,false,311,image-keyboard-response,30
true,1,1,0,1,true,z,false,true,0.0-2.0-0.3-0.30-3.30,0,0,0,90,false,stim,false,-1,485.40000000596046,0,0,0,75300,WMM1,655725,false,false,314,image-keyboard-response,31
true,1,2,0,2,true,d,false,true,0.0-2.0-0.3-0.31-3.31,0,0,0,68,false,stim,false,-1,745.8000000119209,0,0,1,75300,WMM1,658003,false,false,317,image-keyboard-response,32
true,1,2,0,2,true,d,false,true,0.0-2.0-0.3-0.32-3.32,0,0,0,68,false,stim,false,-1,614.4000000059605,0,0,1,75300,WMM1,660154,false,false,320,image-keyboard-response,33
true,1,2,0,2,true,d,false,true,0.0-2.0-0.3-0.33-3.33,0,0,0,68,false,stim,false,-1,874.1999999880791,0,0,2,75300,WMM1,662565,false,false,323,image-keyboard-response,34
true,1,2,0,2,true,d,false,false,0.0-2.0-0.3-0.34-3.34,0,0,0,68,false,stim,false,-1,827.6000000238419,0,0,2,75300,WMM1,664923,false,true,326,image-keyboard-response,35
true,1,2,0,2,true,d,false,true,0.0-2.0-0.3-0.35-3.35,0,0,0,68,false,stim,false,-1,729.9000000059605,0,0,1,75300,WMM1,667186,false,false,329,image-keyboard-response,36
true,1,2,0,2,true,d,false,true,0.0-2.0-0.4-0.36-3.36,0,0,0,68,false,stim,false,-1,757.6999999880791,0,0,1,75300,WMM1,669485,false,false,332,image-keyboard-response,37
true,1,1,0,1,true,z,false,true,0.0-2.0-0.4-0.37-3.37,0,0,0,90,false,stim,false,-1,926.9000000059605,0,0,0,75300,WMM1,671941,false,false,335,image-keyboard-response,38
true,1,1,0,1,true,z,false,true,0.0-2.0-0.4-0.38-3.38,0,0,0,90,false,stim,false,-1,864.0999999940395,0,0,0,75300,WMM1,674338,false,false,338,image-keyboard-response,39
true,1,2,0,2,true,d,false,true,0.0-2.0-0.4-0.39-3.39,0,0,0,68,false,stim,false,-1,874.5,0,0,2,75300,WMM1,676731,false,false,341,image-keyboard-response,40
true,1,2,0,2,true,d,false,false,0.0-2.0-0.4-0.40-3.40,0,0,0,68,false,stim,false,-1,810.2000000178814,0,0,2,75300,WMM1,679069,false,true,344,image-keyboard-response,41
true,1,1,0,2,false,d,true,false,0.0-2.0-0.4-0.41-3.41,0,0,0,90,false,stim,false,-1,816.8000000119209,0,0,1,75300,WMM1,681406,false,false,347,image-keyboard-response,42
true,1,2,0,2,true,d,false,true,0.0-2.0-0.4-0.42-3.42,0,0,0,68,false,stim,false,-1,862.4000000059605,0,0,2,75300,WMM1,683805,false,false,350,image-keyboard-response,43
true,2,2,1,0,false,q,false,true,0.0-2.0-0.4-0.43-3.43,0,0,0,68,true,stim,true,2,744.0,0,0,1,75300,WMM1,686085,false,true,353,image-keyboard-response,1
true,2,1,1,2,false,d,false,false,0.0-2.0-0.4-0.44-3.44,0,0,0,90,false,stim,true,1,1280.8999999761581,0,0,0,75300,WMM1,688889,false,false,356,image-keyboard-response,2
true,2,2,1,0,false,q,false,false,0.0-2.0-0.5-0.45-3.45,0,0,0,68,false,stim,true,2,745.2000000178814,0,0,1,75300,WMM1,691158,false,false,359,image-keyboard-response,3
true,2,1,1,2,false,d,false,false,0.0-2.0-0.5-0.46-3.46,0,0,0,90,false,stim,true,1,674.5999999940395,0,0,0,75300,WMM1,693369,false,false,362,image-keyboard-response,4
true,2,2,1,0,false,q,false,false,0.0-2.0-0.5-0.47-3.47,0,0,0,68,false,stim,true,2,874.1999999880791,0,0,1,75300,WMM1,695766,false,false,365,image-keyboard-response,5
true,2,2,1,1,false,z,false,false,0.0-2.0-0.5-0.48-3.48,0,0,0,68,false,stim,true,2,878.7000000178814,0,0,2,75300,WMM1,698169,false,false,368,image-keyboard-response,6
true,2,2,1,1,false,z,false,false,0.0-2.0-0.5-0.49-3.49,0,0,0,68,false,stim,true,2,605.7000000178814,0,0,2,75300,WMM1,700295,false,false,371,image-keyboard-response,7
true,2,1,1,2,false,d,false,false,0.0-2.0-0.5-0.50-3.50,0,0,0,90,false,stim,true,1,833.2000000178814,0,0,0,75300,WMM1,702654,false,false,374,image-keyboard-response,8
true,2,1,1,1,true,z,false,true,0.0-2.0-0.5-0.51-3.51,0,0,0,90,false,stim,false,2,837.6999999880791,0,0,2,75300,WMM1,705031,false,false,377,image-keyboard-response,9
true,2,0,1,2,false,d,true,false,0.0-2.0-0.5-0.52-3.52,0,0,0,81,false,stim,false,1,662.0,0,0,0,75300,WMM1,707225,false,false,380,image-keyboard-response,10
true,2,1,1,0,false,q,true,true,0.0-2.0-0.5-0.53-3.53,0,0,0,90,false,stim,false,2,1523.6000000238419,0,0,1,75300,WMM1,710297,false,true,383,image-keyboard-response,11
true,2,1,1,1,true,z,false,true,0.0-2.0-0.6-0.54-3.54,0,0,0,90,false,stim,false,2,1017.3999999761581,0,0,2,75300,WMM1,712845,false,false,386,image-keyboard-response,12
true,2,1,1,1,true,z,false,true,0.0-2.0-0.6-0.55-3.55,0,0,0,90,false,stim,false,2,661.5999999940395,0,0,2,75300,WMM1,715049,false,false,389,image-keyboard-response,13
true,2,1,1,0,false,q,true,false,0.0-2.0-0.6-0.56-3.56,0,0,0,90,false,stim,false,2,703.9000000059605,0,0,1,75300,WMM1,717278,false,false,392,image-keyboard-response,14
true,2,1,1,2,false,d,false,true,0.0-2.0-0.6-0.57-3.57,0,0,0,90,false,stim,true,1,1249.5,0,0,0,75300,WMM1,720057,false,true,395,image-keyboard-response,15
true,2,1,1,2,false,d,false,false,0.0-2.0-0.6-0.58-3.58,0,0,0,90,false,stim,true,1,661.1999999880791,0,0,0,75300,WMM1,722252,false,false,398,image-keyboard-response,16
true,2,1,1,2,false,d,false,false,0.0-2.0-0.6-0.59-3.59,0,0,0,90,false,stim,true,1,874.6000000238419,0,0,0,75300,WMM1,724677,false,false,401,image-keyboard-response,17
true,2,0,1,0,true,q,false,true,0.0-2.0-0.6-0.60-3.60,0,0,0,81,false,stim,false,2,1482.4000000059605,0,0,1,75300,WMM1,727690,false,false,404,image-keyboard-response,18
true,2,0,1,0,true,q,false,true,0.0-2.0-0.6-0.61-3.61,0,0,0,81,false,stim,false,2,570.0,0,0,1,75300,WMM1,729794,false,false,407,image-keyboard-response,19
true,2,1,1,1,true,z,false,true,0.0-2.0-0.6-0.62-3.62,0,0,0,90,false,stim,false,2,1487.7999999821186,0,0,2,75300,WMM1,732810,false,false,410,image-keyboard-response,20
true,2,2,1,2,true,d,false,true,0.0-2.0-0.7-0.63-3.63,0,0,0,68,false,stim,false,1,880.0999999940395,0,0,0,75300,WMM1,735220,false,false,413,image-keyboard-response,21
true,2,1,1,1,true,z,false,true,0.0-2.0-0.7-0.64-3.64,0,0,0,90,false,stim,false,2,670.5,0,0,2,75300,WMM1,737426,false,false,416,image-keyboard-response,22
true,2,0,1,0,true,q,false,true,0.0-2.0-0.7-0.65-3.65,0,0,0,81,false,stim,false,2,838.4000000059605,0,0,1,75300,WMM1,739794,false,false,419,image-keyboard-response,23
true,2,1,1,2,false,d,false,false,0.0-2.0-0.7-0.66-3.66,0,0,0,90,false,stim,true,1,759.3000000119209,0,0,0,75300,WMM1,742085,false,false,422,image-keyboard-response,24
true,2,0,1,0,true,q,false,true,0.0-2.0-0.7-0.67-3.67,0,0,0,81,false,stim,false,2,1268.4000000059605,0,0,1,75300,WMM1,744891,false,false,425,image-keyboard-response,25
true,2,1,1,1,true,z,false,true,0.0-2.0-0.7-0.68-3.68,0,0,0,90,false,stim,false,2,1283.300000011921,0,0,2,75300,WMM1,747706,false,false,428,image-keyboard-response,26
true,2,1,1,1,true,z,false,true,0.0-2.0-0.7-0.69-3.69,0,0,0,90,false,stim,false,2,698.0999999940395,0,0,2,75300,WMM1,749939,false,false,431,image-keyboard-response,27
true,2,2,1,2,true,d,false,true,0.0-2.0-0.7-0.70-3.70,0,0,0,68,false,stim,false,1,626.3999999761581,0,0,0,75300,WMM1,752082,false,false,434,image-keyboard-response,28
true,2,0,1,0,true,q,false,false,0.0-2.0-0.7-0.71-3.71,0,0,0,81,false,stim,false,2,972.3999999761581,0,0,1,75300,WMM1,754578,false,true,437,image-keyboard-response,29
true,2,1,1,0,false,q,true,false,0.0-2.0-0.8-0.72-3.72,0,0,0,90,false,stim,false,2,1007.0999999940395,0,0,1,75300,WMM1,757128,false,false,440,image-keyboard-response,30
true,2,0,1,0,true,q,false,true,0.0-2.0-0.8-0.73-3.73,0,0,0,81,false,stim,false,2,616.4000000059605,0,0,1,75300,WMM1,759273,false,false,443,image-keyboard-response,31
true,2,2,1,2,true,d,false,true,0.0-2.0-0.8-0.74-3.74,0,0,0,68,false,stim,false,1,1455.8999999761581,0,0,0,75300,WMM1,762263,false,false,446,image-keyboard-response,32
true,2,1,1,1,true,z,false,true,0.0-2.0-0.8-0.75-3.75,0,0,0,90,false,stim,false,2,750.5,0,0,2,75300,WMM1,764542,false,false,449,image-keyboard-response,33
true,2,0,1,0,true,q,false,true,0.0-2.0-0.8-0.76-3.76,0,0,0,81,false,stim,false,2,782.9000000059605,0,0,1,75300,WMM1,766857,false,false,452,image-keyboard-response,34
true,2,2,1,2,true,d,false,true,0.0-2.0-0.8-0.77-3.77,0,0,0,68,false,stim,false,1,1446.300000011921,0,0,0,75300,WMM1,769838,false,false,455,image-keyboard-response,35
true,2,1,1,1,true,z,false,true,0.0-2.0-0.8-0.78-3.78,0,0,0,90,false,stim,false,2,479.90000000596046,0,0,2,75300,WMM1,771873,false,false,458,image-keyboard-response,36
true,2,1,1,1,true,z,false,true,0.0-2.0-0.8-0.79-3.79,0,0,0,90,false,stim,false,2,904.6999999880791,0,0,2,75300,WMM1,774313,false,false,461,image-keyboard-response,37
true,2,0,1,2,false,d,true,false,0.0-2.0-0.8-0.80-3.80,0,0,0,81,false,stim,false,1,984.1999999880791,0,0,0,75300,WMM1,776822,false,false,464,image-keyboard-response,38
true,2,0,1,0,true,q,false,true,0.0-2.0-0.9-0.81-3.81,0,0,0,81,false,stim,false,2,515.0,0,1,1,75300,WMM1,778870,false,false,467,image-keyboard-response,39
true,2,2,1,2,true,d,false,false,0.0-2.0-0.9-0.82-3.82,0,0,0,68,false,stim,false,1,616.6999999880791,0,0,0,75300,WMM1,781023,false,true,470,image-keyboard-response,40
true,2,1,1,2,false,d,false,false,0.0-2.0-0.9-0.83-3.83,0,0,0,90,false,stim,true,1,508.30000001192093,0,0,0,75300,WMM1,783065,false,false,473,image-keyboard-response,41
true,2,0,1,0,true,q,false,true,0.0-2.0-0.9-0.84-3.84,0,0,0,81,false,stim,false,2,920.1999999880791,0,1,1,75300,WMM1,785510,false,false,476,image-keyboard-response,42
true,2,1,1,1,true,z,false,true,0.0-2.0-0.9-0.85-3.85,0,0,0,90,false,stim,false,2,1127.2999999821186,0,0,2,75300,WMM1,788166,false,false,479,image-keyboard-response,43
true,2,0,1,0,true,q,false,true,0.0-2.0-0.9-0.86-3.86,0,0,0,81,false,stim,false,2,905.5,0,1,1,75300,WMM1,790597,false,false,482,image-keyboard-response,44
true,3,2,3,1,false,z,false,false,0.0-2.0-0.9-0.87-3.87,0,1,0,68,true,stim,true,2,906.5999999940395,0,0,0,75300,WMM1,793029,false,false,485,image-keyboard-response,1
true,3,1,3,2,false,d,false,false,0.0-2.0-0.9-0.88-3.88,0,1,0,90,false,stim,true,1,840.0,0,0,2,75300,WMM1,795395,false,false,488,image-keyboard-response,2
true,3,1,3,2,false,d,false,false,0.0-2.0-0.9-0.89-3.89,0,1,0,90,false,stim,true,1,679.5999999940395,0,0,2,75300,WMM1,797604,false,false,491,image-keyboard-response,3
true,3,1,3,1,true,z,false,true,0.0-2.0-0.10-0.90-3.90,0,1,0,90,false,stim,false,2,1167.300000011921,0,0,0,75300,WMM1,800306,false,false,494,image-keyboard-response,4
true,3,2,3,2,true,d,false,true,0.0-2.0-0.10-0.91-3.91,0,1,0,68,false,stim,false,1,1030.4000000059605,0,0,2,75300,WMM1,802872,false,false,497,image-keyboard-response,5
true,3,0,3,0,true,q,false,true,0.0-2.0-0.10-0.92-3.92,0,1,0,81,false,stim,false,0,813.7000000178814,0,1,1,75300,WMM1,805217,false,false,500,image-keyboard-response,6
true,3,2,3,2,true,d,false,true,0.0-2.0-0.10-0.93-3.93,0,1,0,68,false,stim,false,1,1112.5,0,0,2,75300,WMM1,807868,false,false,503,image-keyboard-response,7
true,3,0,3,0,true,q,false,true,0.0-2.0-0.10-0.94-3.94,0,1,0,81,false,stim,false,0,765.7999999821186,0,1,1,75300,WMM1,810172,false,false,506,image-keyboard-response,8
true,3,0,3,0,true,q,false,true,0.0-2.0-0.10-0.95-3.95,0,1,0,81,false,stim,false,0,585.1999999880791,0,1,1,75300,WMM1,812290,false,false,509,image-keyboard-response,9
true,3,1,3,1,true,z,false,true,0.0-2.0-0.10-0.96-3.96,0,1,0,90,false,stim,false,2,885.0,0,0,0,75300,WMM1,814708,false,false,512,image-keyboard-response,10
true,3,2,3,2,true,d,false,true,0.0-2.0-0.10-0.97-3.97,0,1,0,68,false,stim,false,1,758.3000000119209,0,0,2,75300,WMM1,816997,false,false,515,image-keyboard-response,11
true,3,1,3,1,true,z,false,true,0.0-2.0-0.10-0.98-3.98,0,1,0,90,false,stim,false,2,1546.2000000178814,0,0,0,75300,WMM1,820069,false,false,518,image-keyboard-response,12
true,3,0,3,0,true,q,false,true,0.0-2.0-0.11-0.99-3.99,0,1,0,81,false,stim,false,0,630.5,0,1,1,75300,WMM1,822226,false,false,521,image-keyboard-response,13
true,3,0,3,0,true,q,false,true,0.0-2.0-0.11-0.100-3.100,0,1,0,81,false,stim,false,0,984.1999999880791,0,1,1,75300,WMM1,824741,false,false,524,image-keyboard-response,14
true,3,2,3,2,true,d,false,true,0.0-2.0-0.11-0.101-3.101,0,1,0,68,false,stim,false,1,729.5999999940395,0,0,2,75300,WMM1,827002,false,false,527,image-keyboard-response,15
true,3,0,3,1,false,z,true,false,0.0-2.0-0.11-0.102-3.102,0,1,0,81,false,stim,false,2,830.1999999880791,0,0,0,75300,WMM1,829369,false,false,530,image-keyboard-response,16
true,3,1,3,1,true,z,false,true,0.0-2.0-0.11-0.103-3.103,0,1,0,90,false,stim,false,2,639.1999999880791,0,0,0,75300,WMM1,831544,false,false,533,image-keyboard-response,17
true,3,2,3,2,true,d,false,true,0.0-2.0-0.11-0.104-3.104,0,1,0,68,false,stim,false,1,757.0999999940395,0,0,2,75300,WMM1,833832,false,false,536,image-keyboard-response,18
true,3,0,3,0,true,q,false,true,0.0-2.0-0.11-0.105-3.105,0,1,0,81,false,stim,false,0,1204.6000000238419,0,1,1,75300,WMM1,836560,false,false,539,image-keyboard-response,19
true,3,2,3,2,true,d,false,true,0.0-2.0-0.11-0.106-3.106,0,1,0,68,false,stim,false,1,870.4000000059605,0,0,2,75300,WMM1,838960,false,false,542,image-keyboard-response,20
true,3,1,3,1,true,z,false,true,0.0-2.0-0.11-0.107-3.107,0,1,0,90,false,stim,false,2,911.3000000119209,0,0,0,75300,WMM1,841399,false,false,545,image-keyboard-response,21
true,3,1,3,1,true,z,false,true,0.0-2.0-0.12-0.108-3.108,0,1,0,90,false,stim,false,2,774.6000000238419,0,0,0,75300,WMM1,843712,false,false,548,image-keyboard-response,22
true,3,0,3,0,true,q,false,true,0.0-2.0-0.12-0.109-3.109,0,1,0,81,false,stim,false,0,795.5999999940395,0,0,1,75300,WMM1,846037,false,false,551,image-keyboard-response,23
true,3,0,3,0,true,q,false,true,0.0-2.0-0.12-0.110-3.110,0,1,0,81,false,stim,false,0,754.4000000059605,0,0,1,75300,WMM1,848328,false,false,554,image-keyboard-response,24
true,3,1,3,1,true,z,false,true,0.0-2.0-0.12-0.111-3.111,0,1,0,90,false,stim,false,2,1064.0,0,0,0,75300,WMM1,850920,false,false,557,image-keyboard-response,25
true,3,1,3,1,true,z,false,true,0.0-2.0-0.12-0.112-3.112,0,1,0,90,false,stim,false,2,569.9000000059605,0,0,0,75300,WMM1,853025,false,false,560,image-keyboard-response,26
true,3,2,3,2,true,d,false,true,0.0-2.0-0.12-0.113-3.113,0,1,0,68,false,stim,false,1,740.7999999821186,0,0,2,75300,WMM1,855282,false,false,563,image-keyboard-response,27
true,3,2,3,2,true,d,false,true,0.0-2.0-0.12-0.114-3.114,0,1,0,68,false,stim,false,1,779.5999999940395,0,0,2,75300,WMM1,857584,false,false,566,image-keyboard-response,28
true,3,0,3,0,true,q,false,true,0.0-2.0-0.12-0.115-3.115,0,1,0,81,false,stim,false,0,1574.5,0,0,1,75300,WMM1,860681,false,false,569,image-keyboard-response,29
true,3,2,3,2,true,d,false,true,0.0-2.0-0.12-0.116-3.116,0,1,0,68,false,stim,false,1,583.0,0,0,2,75300,WMM1,862789,false,false,572,image-keyboard-response,30
true,3,2,3,2,true,d,false,true,0.0-2.0-0.13-0.117-3.117,0,1,0,68,false,stim,false,1,846.5999999940395,0,0,2,75300,WMM1,865165,false,false,575,image-keyboard-response,31
true,4,2,1,1,false,z,false,false,0.0-2.0-0.13-0.118-3.118,0,0,0,68,true,stim,true,2,1227.9000000059605,0,0,2,75300,WMM1,867913,false,false,578,image-keyboard-response,1
true,4,1,1,2,false,d,false,false,0.0-2.0-0.13-0.119-3.119,0,0,0,90,false,stim,true,1,1246.5,0,0,0,75300,WMM1,870685,false,false,581,image-keyboard-response,2
true,4,0,1,2,false,d,false,false,0.0-2.0-0.13-0.120-3.120,0,0,0,81,false,stim,true,0,792.5,0,0,1,75300,WMM1,872996,false,false,584,image-keyboard-response,3
true,4,1,1,2,false,d,true,false,0.0-2.0-0.13-0.121-3.121,0,0,0,90,false,stim,false,0,931.0,0,0,1,75300,WMM1,875451,false,false,587,image-keyboard-response,4
true,4,0,1,2,false,d,true,false,0.0-2.0-0.13-0.122-3.122,0,0,0,81,false,stim,false,1,1679.9000000059605,0,0,0,75300,WMM1,878652,false,false,590,image-keyboard-response,5
true,4,1,1,1,true,z,false,false,0.0-2.0-0.13-0.123-3.123,0,0,0,90,false,stim,false,2,952.8000000119209,0,0,2,75300,WMM1,881140,false,true,593,image-keyboard-response,6
true,4,2,1,2,true,d,false,true,0.0-2.0-0.13-0.124-3.124,0,0,0,68,false,stim,false,1,931.9000000059605,0,0,0,75300,WMM1,883604,false,false,596,image-keyboard-response,7
true,4,1,1,2,false,d,true,false,0.0-2.0-0.13-0.125-3.125,0,0,0,90,false,stim,false,0,1770.800000011921,0,0,1,75300,WMM1,886909,false,false,599,image-keyboard-response,8
true,4,2,1,2,true,d,false,true,0.0-2.0-0.14-0.126-3.126,0,0,0,68,false,stim,false,1,1427.699999988079,0,0,0,75300,WMM1,889882,false,false,602,image-keyboard-response,9
true,4,2,1,2,true,d,false,true,0.0-2.0-0.14-0.127-3.127,0,0,0,68,false,stim,false,0,910.9000000059605,0,0,1,75300,WMM1,892316,false,false,605,image-keyboard-response,10
true,4,0,1,1,false,z,true,false,0.0-2.0-0.14-0.128-3.128,0,0,0,81,false,stim,false,2,859.4000000059605,0,0,2,75300,WMM1,894698,false,false,608,image-keyboard-response,11
true,4,2,1,2,true,d,false,true,0.0-2.0-0.14-0.129-3.129,0,0,0,68,false,stim,false,1,983.0999999940395,0,0,0,75300,WMM1,897221,false,false,611,image-keyboard-response,12
true,4,2,1,2,true,d,false,true,0.0-2.0-0.14-0.130-3.130,0,0,0,68,false,stim,false,0,948.7000000178814,0,0,1,75300,WMM1,899703,false,false,614,image-keyboard-response,13
true,4,2,1,2,true,d,false,true,0.0-2.0-0.14-0.131-3.131,0,0,0,68,false,stim,false,1,680.6999999880791,0,0,0,75300,WMM1,901918,false,false,617,image-keyboard-response,14
true,4,1,1,1,true,z,false,true,0.0-2.0-0.14-0.132-3.132,0,0,0,90,false,stim,false,2,1199.2000000178814,0,0,2,75300,WMM1,904654,false,false,620,image-keyboard-response,15
true,4,2,1,2,true,d,false,true,0.0-2.0-0.14-0.133-3.133,0,0,0,68,false,stim,false,0,747.5,0,0,1,75300,WMM1,906950,false,false,623,image-keyboard-response,16
true,4,1,1,1,true,z,false,true,0.0-2.0-0.14-0.134-3.134,0,0,0,90,false,stim,false,2,849.5,0,0,2,75300,WMM1,909337,false,false,626,image-keyboard-response,17
true,4,1,1,1,true,z,false,true,0.0-2.0-0.15-0.135-3.135,0,0,0,90,false,stim,false,2,773.9000000059605,0,0,2,75300,WMM1,911646,false,false,629,image-keyboard-response,18
true,4,1,1,1,true,z,false,true,0.0-2.0-0.15-0.136-3.136,0,0,0,90,false,stim,false,2,659.2000000178814,0,0,2,75300,WMM1,913830,false,false,632,image-keyboard-response,19
true,4,2,1,2,true,d,false,true,0.0-2.0-0.15-0.137-3.137,0,0,0,68,false,stim,false,0,756.7000000178814,0,0,1,75300,WMM1,916110,false,false,635,image-keyboard-response,20
true,4,2,1,2,true,d,false,true,0.0-2.0-0.15-0.138-3.138,0,0,0,68,false,stim,false,0,770.5,0,0,1,75300,WMM1,918408,false,false,638,image-keyboard-response,21
true,4,2,1,2,true,d,false,false,0.0-2.0-0.15-0.139-3.139,0,0,0,68,false,stim,false,0,533.4000000059605,0,0,1,75300,WMM1,920472,false,true,641,image-keyboard-response,22
true,4,2,1,2,true,d,false,true,0.0-2.0-0.15-0.140-3.140,0,0,0,68,false,stim,false,1,1819.5,0,0,0,75300,WMM1,923824,false,false,644,image-keyboard-response,23
true,4,2,1,2,true,d,false,true,0.0-2.0-0.15-0.141-3.141,0,0,0,68,false,stim,false,1,669.0,0,0,0,75300,WMM1,926024,false,false,647,image-keyboard-response,24
true,4,2,1,2,true,d,false,true,0.0-2.0-0.15-0.142-3.142,0,0,0,68,false,stim,false,1,617.0,0,0,0,75300,WMM1,928168,false,false,650,image-keyboard-response,25
true,4,0,1,1,false,z,true,false,0.0-2.0-0.15-0.143-3.143,0,0,0,81,false,stim,false,2,1064.4000000059605,0,0,2,75300,WMM1,930768,false,false,653,image-keyboard-response,26
true,4,2,1,2,true,d,false,true,0.0-2.0-0.16-0.144-3.144,0,0,0,68,false,stim,false,1,1226.5,0,0,0,75300,WMM1,933521,false,false,656,image-keyboard-response,27
true,4,2,1,2,true,d,false,true,0.0-2.0-0.16-0.145-3.145,0,0,0,68,false,stim,false,0,934.0,0,0,1,75300,WMM1,935988,false,false,659,image-keyboard-response,28
true,4,1,1,1,true,z,false,true,0.0-2.0-0.16-0.146-3.146,0,0,0,90,false,stim,false,2,559.4000000059605,0,0,2,75300,WMM1,938060,false,false,662,image-keyboard-response,29
true,4,2,1,2,true,d,false,true,0.0-2.0-0.16-0.147-3.147,0,0,0,68,false,stim,false,0,983.6999999880791,0,0,1,75300,WMM1,940572,false,false,665,image-keyboard-response,30
true,5,1,2,2,false,d,false,false,0.0-2.0-0.16-0.148-3.148,0,0,0,90,true,stim,true,1,1600.9000000059605,0,0,2,75300,WMM1,943690,false,false,668,image-keyboard-response,1
true,5,1,2,2,false,d,false,false,0.0-2.0-0.16-0.149-3.149,0,0,0,90,false,stim,true,1,846.4000000059605,0,0,2,75300,WMM1,946068,false,false,671,image-keyboard-response,2
true,5,2,2,1,false,z,false,false,0.0-2.0-0.16-0.150-3.150,0,0,0,68,false,stim,true,2,1430.5,0,0,0,75300,WMM1,949034,false,false,674,image-keyboard-response,3
true,5,0,2,1,false,z,true,false,0.0-2.0-0.16-0.151-3.151,0,0,0,81,false,stim,false,2,351.59999999403954,0,0,0,75300,WMM1,950924,false,false,677,image-keyboard-response,4
true,5,1,2,0,false,q,true,false,0.0-2.0-0.16-0.152-3.152,0,0,0,90,false,stim,false,2,1212.5,0,0,1,75300,WMM1,953666,false,false,680,image-keyboard-response,5
true,5,0,2,2,false,d,true,false,0.0-2.0-0.17-0.153-3.153,0,0,0,81,false,stim,false,1,454.80000001192093,0,0,2,75300,WMM1,955661,false,false,683,image-keyboard-response,6
true,5,1,2,1,true,z,false,true,0.0-2.0-0.17-0.154-3.154,0,0,0,90,false,stim,false,2,1447.4000000059605,0,0,0,75300,WMM1,958634,false,false,686,image-keyboard-response,7
true,5,1,2,1,true,z,false,true,0.0-2.0-0.17-0.155-3.155,0,0,0,90,false,stim,false,2,597.4000000059605,0,0,0,75300,WMM1,960770,false,false,689,image-keyboard-response,8
true,5,1,2,1,true,z,false,false,0.0-2.0-0.17-0.156-3.156,0,0,0,90,false,stim,false,2,556.9000000059605,0,0,0,75300,WMM1,962842,false,true,692,image-keyboard-response,9
true,5,2,2,2,true,d,false,true,0.0-2.0-0.17-0.157-3.157,0,0,0,68,false,stim,false,1,1137.2000000178814,0,0,2,75300,WMM1,965508,false,false,695,image-keyboard-response,10
true,5,1,2,0,false,q,true,false,0.0-2.0-0.17-0.158-3.158,0,0,0,90,false,stim,false,2,1567.300000011921,0,0,1,75300,WMM1,968620,false,false,698,image-keyboard-response,11
true,5,2,2,0,false,q,false,false,0.0-2.0-0.17-0.159-3.159,0,0,0,68,false,stim,true,2,690.3000000119209,0,0,1,75300,WMM1,970841,false,false,701,image-keyboard-response,12
true,5,0,2,0,true,q,false,true,0.0-2.0-0.17-0.160-3.160,0,0,0,81,false,stim,false,2,484.2000000178814,0,0,1,75300,WMM1,972848,false,false,704,image-keyboard-response,13
true,5,2,2,2,true,d,false,true,0.0-2.0-0.17-0.161-3.161,0,0,0,68,false,stim,false,1,941.5,0,0,2,75300,WMM1,975318,false,false,707,image-keyboard-response,14
true,5,0,2,0,true,q,false,true,0.0-2.0-0.18-0.162-3.162,0,0,0,81,false,stim,false,2,767.3000000119209,0,0,1,75300,WMM1,977622,false,false,710,image-keyboard-response,15
true,5,2,2,2,true,d,false,true,0.0-2.0-0.18-0.163-3.163,0,0,0,68,false,stim,false,1,678.7000000178814,0,0,2,75300,WMM1,979832,false,false,713,image-keyboard-response,16
true,5,0,2,0,true,q,false,true,0.0-2.0-0.18-0.164-3.164,0,0,0,81,false,stim,false,2,739.4000000059605,0,0,1,75300,WMM1,982110,false,false,716,image-keyboard-response,17
true,5,2,2,2,true,d,false,true,0.0-2.0-0.18-0.165-3.165,0,0,0,68,false,stim,false,1,859.9000000059605,0,0,2,75300,WMM1,984496,false,false,719,image-keyboard-response,18
true,5,1,2,1,true,z,false,true,0.0-2.0-0.18-0.166-3.166,0,0,0,90,false,stim,false,2,810.2000000178814,0,0,0,75300,WMM1,986830,false,false,722,image-keyboard-response,19
true,5,1,2,1,true,z,false,true,0.0-2.0-0.18-0.167-3.167,0,0,0,90,false,stim,false,2,845.8000000119209,0,0,0,75300,WMM1,989200,false,false,725,image-keyboard-response,20
true,5,1,2,1,true,z,false,true,0.0-2.0-0.18-0.168-3.168,0,0,0,90,false,stim,false,2,1190.7000000178814,0,0,0,75300,WMM1,991910,false,false,728,image-keyboard-response,21
true,5,2,2,2,true,d,false,true,0.0-2.0-0.18-0.169-3.169,0,0,0,68,false,stim,false,1,1001.7999999821186,0,0,2,75300,WMM1,994438,false,false,731,image-keyboard-response,22
true,5,0,2,0,true,q,false,true,0.0-2.0-0.18-0.170-3.170,0,0,0,81,false,stim,false,2,819.1999999880791,0,0,1,75300,WMM1,996789,false,false,734,image-keyboard-response,23
true,5,1,2,1,true,z,false,true,0.0-2.0-0.19-0.171-3.171,0,0,0,90,false,stim,false,2,635.3999999761581,0,0,0,75300,WMM1,998957,false,false,737,image-keyboard-response,24
true,5,2,2,2,true,d,false,true,0.0-2.0-0.19-0.172-3.172,0,0,0,68,false,stim,false,1,712.7000000178814,0,0,2,75300,WMM1,1001198,false,false,740,image-keyboard-response,25
true,5,1,2,1,true,z,false,false,0.0-2.0-0.19-0.173-3.173,0,0,0,90,false,stim,false,2,848.2999999821186,0,0,0,75300,WMM1,1003584,false,true,743,image-keyboard-response,26
true,5,0,2,0,true,q,false,true,0.0-2.0-0.19-0.174-3.174,0,0,0,81,false,stim,false,2,961.3000000119209,0,0,1,75300,WMM1,1006080,false,false,746,image-keyboard-response,27
true,5,2,2,2,true,d,false,true,0.0-2.0-0.19-0.175-3.175,0,0,0,68,false,stim,false,1,631.1999999880791,0,0,2,75300,WMM1,1008233,false,false,749,image-keyboard-response,28
true,5,2,2,2,true,d,false,true,0.0-2.0-0.19-0.176-3.176,0,0,0,68,false,stim,false,1,644.8000000119209,0,0,2,75300,WMM1,1010426,false,false,752,image-keyboard-response,29
true,5,1,2,0,false,q,true,false,0.0-2.0-0.19-0.177-3.177,0,0,0,90,false,stim,false,2,722.1000000238419,0,0,1,75300,WMM1,1012676,false,false,755,image-keyboard-response,30
true,6,0,4,1,false,z,false,false,0.0-2.0-0.19-0.178-3.178,0,0,0,81,true,stim,true,0,835.0,0,0,1,75300,WMM1,1015042,false,false,758,image-keyboard-response,1
true,6,1,4,0,false,q,false,false,0.0-2.0-0.19-0.179-3.179,0,0,0,90,false,stim,true,1,1473.800000011921,0,0,0,75300,WMM1,1018044,false,false,761,image-keyboard-response,2
true,6,2,4,0,false,q,true,false,0.0-2.0-0.20-0.180-3.180,0,0,0,68,false,stim,false,1,948.5,0,0,0,75300,WMM1,1020530,false,false,764,image-keyboard-response,3
true,6,0,4,1,false,z,false,false,0.0-2.0-0.20-0.181-3.181,0,0,0,81,false,stim,true,0,840.1000000238419,0,0,1,75300,WMM1,1022892,false,false,767,image-keyboard-response,4
true,6,2,4,0,false,q,false,false,0.0-2.0-0.20-0.182-3.182,0,0,0,68,false,stim,true,2,716.7999999821186,0,0,2,75300,WMM1,1025138,false,false,770,image-keyboard-response,5
true,6,0,4,0,true,q,false,true,0.0-2.0-0.20-0.183-3.183,0,0,0,81,false,stim,false,1,1172.6000000238419,0,0,0,75300,WMM1,1027842,false,false,773,image-keyboard-response,6
true,6,2,4,0,false,q,false,false,0.0-2.0-0.20-0.184-3.184,0,0,0,68,false,stim,true,2,1514.9000000059605,0,0,2,75300,WMM1,1030863,false,false,776,image-keyboard-response,7
true,6,1,4,0,false,q,true,false,0.0-2.0-0.20-0.185-3.185,0,0,0,90,false,stim,false,2,671.0,0,0,2,75300,WMM1,1033066,false,false,779,image-keyboard-response,8
true,6,2,4,1,false,z,true,false,0.0-2.0-0.20-0.186-3.186,0,0,0,68,false,stim,false,0,1431.699999988079,0,0,1,75300,WMM1,1036024,false,false,782,image-keyboard-response,9
true,6,1,4,1,true,z,false,true,0.0-2.0-0.20-0.187-3.187,0,0,0,90,false,stim,false,0,704.7999999821186,0,0,1,75300,WMM1,1038263,false,false,785,image-keyboard-response,10
true,6,0,4,0,true,q,false,true,0.0-2.0-0.20-0.188-3.188,0,0,0,81,false,stim,false,1,1068.2000000178814,0,0,0,75300,WMM1,1040862,false,false,788,image-keyboard-response,11
true,6,1,4,1,true,z,false,true,0.0-2.0-0.21-0.189-3.189,0,0,0,90,false,stim,false,0,1595.8999999761581,0,0,1,75300,WMM1,1043990,false,false,791,image-keyboard-response,12
true,6,1,4,1,true,z,false,true,0.0-2.0-0.21-0.190-3.190,0,0,0,90,false,stim,false,0,575.2000000178814,0,0,1,75300,WMM1,1046100,false,false,794,image-keyboard-response,13
true,6,0,4,0,true,q,false,true,0.0-2.0-0.21-0.191-3.191,0,0,0,81,false,stim,false,1,695.1999999880791,0,0,0,75300,WMM1,1048307,false,false,797,image-keyboard-response,14
true,6,1,4,0,false,q,true,false,0.0-2.0-0.21-0.192-3.192,0,0,0,90,false,stim,false,2,893.5999999940395,0,0,2,75300,WMM1,1050734,false,false,800,image-keyboard-response,15
true,6,1,4,1,true,z,false,true,0.0-2.0-0.21-0.193-3.193,0,0,0,90,false,stim,false,0,1377.699999988079,0,0,1,75300,WMM1,1053654,false,false,803,image-keyboard-response,16
true,6,0,4,0,true,q,false,true,0.0-2.0-0.21-0.194-3.194,0,0,0,81,false,stim,false,2,1075.0,0,0,2,75300,WMM1,1056251,false,false,806,image-keyboard-response,17
true,6,0,4,0,true,q,false,true,0.0-2.0-0.21-0.195-3.195,0,0,0,81,false,stim,false,2,502.0,0,0,2,75300,WMM1,1058278,false,false,809,image-keyboard-response,18
true,6,0,4,0,true,q,false,true,0.0-2.0-0.21-0.196-3.196,0,0,0,81,false,stim,false,1,933.0,0,0,0,75300,WMM1,1060742,false,false,812,image-keyboard-response,19
true,6,0,4,0,true,q,false,true,0.0-2.0-0.21-0.197-3.197,0,0,0,81,false,stim,false,1,577.2999999821186,0,0,0,75300,WMM1,1062854,false,false,815,image-keyboard-response,20
true,6,0,4,0,true,q,false,true,0.0-2.0-0.22-0.198-3.198,0,0,0,81,false,stim,false,2,999.8000000119209,0,0,2,75300,WMM1,1065390,false,false,818,image-keyboard-response,21
true,6,1,4,1,true,z,false,true,0.0-2.0-0.22-0.199-3.199,0,0,0,90,false,stim,false,0,1133.3999999761581,0,0,1,75300,WMM1,1068067,false,false,821,image-keyboard-response,22
true,6,0,4,0,true,q,false,true,0.0-2.0-0.22-0.200-3.200,0,0,0,81,false,stim,false,1,596.7999999821186,0,0,0,75300,WMM1,1070189,false,false,824,image-keyboard-response,23
true,6,0,4,0,true,q,false,true,0.0-2.0-0.22-0.201-3.201,0,0,0,81,false,stim,false,2,1002.8000000119209,0,0,2,75300,WMM1,1072710,false,false,827,image-keyboard-response,24
true,6,0,4,0,true,q,false,true,0.0-2.0-0.22-0.202-3.202,0,0,0,81,false,stim,false,2,499.39999997615814,0,0,2,75300,WMM1,1074741,false,false,830,image-keyboard-response,25
true,6,0,4,0,true,q,false,true,0.0-2.0-0.22-0.203-3.203,0,0,0,81,false,stim,false,1,754.3999999761581,0,0,0,75300,WMM1,1077027,false,false,833,image-keyboard-response,26
true,6,0,4,0,true,q,false,true,0.0-2.0-0.22-0.204-3.204,0,0,0,81,false,stim,false,1,1074.0999999940395,0,0,0,75300,WMM1,1079635,false,false,836,image-keyboard-response,27
true,6,1,4,1,true,z,false,true,0.0-2.0-0.22-0.205-3.205,0,0,0,90,false,stim,false,0,985.5,0,0,1,75300,WMM1,1082143,false,false,839,image-keyboard-response,28
true,6,1,4,1,true,z,false,true,0.0-2.0-0.22-0.206-3.206,0,0,0,90,false,stim,false,0,549.7999999821186,0,0,1,75300,WMM1,1084225,false,false,842,image-keyboard-response,29
true,6,0,4,0,true,q,false,true,0.0-2.0-0.23-0.207-3.207,0,0,0,81,false,stim,false,1,708.4000000059605,0,0,0,75300,WMM1,1086450,false,false,845,image-keyboard-response,30
true,7,1,2,2,false,d,true,false,0.0-2.0-0.23-0.208-3.208,0,0,0,90,true,stim,false,0,1457.800000011921,0,0,2,75300,WMM1,1089434,false,false,848,image-keyboard-response,1
true,7,1,2,0,false,q,false,false,0.0-2.0-0.23-0.209-3.209,0,0,0,90,false,stim,true,1,978.7999999821186,0,0,1,75300,WMM1,1091948,false,false,851,image-keyboard-response,2
true,7,0,2,2,false,d,false,false,0.0-2.0-0.23-0.210-3.210,0,0,0,81,false,stim,true,0,782.6999999880791,0,0,2,75300,WMM1,1094273,false,false,854,image-keyboard-response,3
true,7,2,2,0,false,q,true,true,0.0-2.0-0.23-0.211-3.211,0,0,0,68,false,stim,false,1,1250.0,0,0,1,75300,WMM1,1097052,false,true,857,image-keyboard-response,4
true,7,0,2,1,false,z,false,false,0.0-2.0-0.23-0.212-3.212,0,0,0,81,false,stim,true,0,751.1999999880791,0,0,0,75300,WMM1,1099338,false,false,860,image-keyboard-response,5
true,7,1,2,2,false,d,true,false,0.0-2.0-0.23-0.213-3.213,0,0,0,90,false,stim,false,0,1069.9000000059605,0,0,2,75300,WMM1,1101939,false,false,863,image-keyboard-response,6
true,7,2,2,0,false,q,true,true,0.0-2.0-0.23-0.214-3.214,0,0,0,68,false,stim,false,1,791.9000000059605,0,0,1,75300,WMM1,1104260,false,true,866,image-keyboard-response,7
true,7,1,2,1,true,z,false,true,0.0-2.0-0.23-0.215-3.215,0,0,0,90,false,stim,false,0,1218.5,0,0,0,75300,WMM1,1107003,false,false,869,image-keyboard-response,8
true,7,2,2,2,true,d,false,true,0.0-2.0-0.24-0.216-3.216,0,0,0,68,false,stim,false,0,700.5,0,0,2,75300,WMM1,1109233,false,false,872,image-keyboard-response,9
true,7,2,2,2,true,d,false,true,0.0-2.0-0.24-0.217-3.217,0,0,0,68,false,stim,false,0,725.0999999940395,0,0,2,75300,WMM1,1111493,false,false,875,image-keyboard-response,10
true,7,0,2,0,true,q,false,true,0.0-2.0-0.24-0.218-3.218,0,0,0,81,false,stim,false,1,1369.199999988079,0,0,1,75300,WMM1,1114388,false,false,878,image-keyboard-response,11
true,7,2,2,2,true,d,false,true,0.0-2.0-0.24-0.219-3.219,0,0,0,68,false,stim,false,0,1265.199999988079,0,0,2,75300,WMM1,1117184,false,false,881,image-keyboard-response,12
true,7,1,2,1,true,z,false,true,0.0-2.0-0.24-0.220-3.220,0,0,0,90,false,stim,false,0,737.1000000238419,0,0,0,75300,WMM1,1119480,false,false,884,image-keyboard-response,13
true,7,0,2,0,true,q,false,true,0.0-2.0-0.24-0.221-3.221,0,0,0,81,false,stim,false,1,948.2999999821186,0,0,1,75300,WMM1,1121949,false,false,887,image-keyboard-response,14
true,7,1,2,1,true,z,false,true,0.0-2.0-0.24-0.222-3.222,0,0,0,90,false,stim,false,0,795.1000000238419,0,0,0,75300,WMM1,1124280,false,false,890,image-keyboard-response,15
true,7,1,2,1,true,z,false,true,0.0-2.0-0.24-0.223-3.223,0,0,0,90,false,stim,false,0,662.6999999880791,0,0,0,75300,WMM1,1126464,false,false,893,image-keyboard-response,16
true,7,0,2,0,true,q,false,true,0.0-2.0-0.24-0.224-3.224,0,0,0,81,false,stim,false,1,1248.0,0,0,1,75300,WMM1,1129248,false,false,896,image-keyboard-response,17
true,7,2,2,2,true,d,false,true,0.0-2.0-0.25-0.225-3.225,0,0,0,68,false,stim,false,0,692.5999999940395,0,0,2,75300,WMM1,1131471,false,false,899,image-keyboard-response,18
true,7,1,2,1,true,z,false,true,0.0-2.0-0.25-0.226-3.226,0,0,0,90,false,stim,false,0,980.5,0,0,0,75300,WMM1,1133998,false,false,902,image-keyboard-response,19
true,7,0,2,0,true,q,false,true,0.0-2.0-0.25-0.227-3.227,0,0,0,81,false,stim,false,1,1401.0999999940395,0,0,1,75300,WMM1,1136936,false,false,905,image-keyboard-response,20
true,7,2,2,2,true,d,false,true,0.0-2.0-0.25-0.228-3.228,0,0,0,68,false,stim,false,0,658.5,0,1,2,75300,WMM1,1139127,false,false,908,image-keyboard-response,21
true,7,2,2,2,true,d,false,true,0.0-2.0-0.25-0.229-3.229,0,0,0,68,false,stim,false,0,483.09999999403954,0,1,2,75300,WMM1,1141135,false,false,911,image-keyboard-response,22
true,7,0,2,0,true,q,false,false,0.0-2.0-0.25-0.230-3.230,0,0,0,81,false,stim,false,1,810.5,0,0,1,75300,WMM1,1143478,false,true,914,image-keyboard-response,23
true,7,0,2,1,false,z,false,false,0.0-2.0-0.25-0.231-3.231,0,0,0,81,false,stim,true,0,859.5999999940395,0,0,0,75300,WMM1,1145860,false,false,917,image-keyboard-response,24
true,7,0,2,1,false,z,false,false,0.0-2.0-0.25-0.232-3.232,0,0,0,81,false,stim,true,0,802.5,0,0,0,75300,WMM1,1148186,false,false,920,image-keyboard-response,25
true,7,1,2,0,false,q,false,false,0.0-2.0-0.25-0.233-3.233,0,0,0,90,false,stim,true,1,1360.4000000059605,0,0,1,75300,WMM1,1151084,false,false,923,image-keyboard-response,26
true,7,2,2,2,true,d,false,true,0.0-2.0-0.26-0.234-3.234,0,0,0,68,false,stim,false,0,576.0,0,1,2,75300,WMM1,1153180,false,false,926,image-keyboard-response,27
true,7,1,2,1,true,z,false,false,0.0-2.0-0.26-0.235-3.235,0,0,0,90,false,stim,false,0,846.9000000059605,0,0,0,75300,WMM1,1155548,false,true,929,image-keyboard-response,28
true,7,2,2,1,false,z,true,false,0.0-2.0-0.26-0.236-3.236,0,0,0,68,false,stim,false,0,804.6000000238419,0,0,0,75300,WMM1,1157873,false,false,932,image-keyboard-response,29
true,7,1,2,0,false,q,false,false,0.0-2.0-0.26-0.237-3.237,0,0,0,90,false,stim,true,1,1289.9000000059605,0,0,1,75300,WMM1,1160692,false,false,935,image-keyboard-response,30
true,8,0,3,1,false,z,false,true,0.0-2.0-0.26-0.238-3.238,0,0,1,81,true,stim,true,0,553.9000000059605,0,0,1,75300,WMM1,1162772,false,true,938,image-keyboard-response,1
true,8,2,3,2,true,d,false,true,0.0-2.0-0.26-0.239-3.239,0,0,1,68,false,stim,false,2,594.6999999880791,0,1,2,75300,WMM1,1164913,false,false,941,image-keyboard-response,2
true,8,1,3,2,false,d,false,true,0.0-2.0-0.26-0.240-3.240,0,0,1,90,false,stim,true,1,904.3999999761581,0,0,0,75300,WMM1,1167356,false,true,944,image-keyboard-response,3
true,8,0,3,1,false,z,false,false,0.0-2.0-0.26-0.241-3.241,0,0,1,81,false,stim,true,0,2164.2000000178814,0,0,1,75300,WMM1,1171050,false,false,947,image-keyboard-response,4
true,8,2,3,2,true,d,false,true,0.0-2.0-0.26-0.242-3.242,0,0,1,68,false,stim,false,2,642.0999999940395,0,1,2,75300,WMM1,1173225,false,false,950,image-keyboard-response,5
true,8,1,3,1,true,z,false,true,0.0-2.0-0.27-0.243-3.243,0,0,1,90,false,stim,false,0,876.5999999940395,0,0,1,75300,WMM1,1175644,false,false,953,image-keyboard-response,6
true,8,0,3,2,false,d,true,false,0.0-2.0-0.27-0.244-3.244,0,0,1,81,false,stim,false,1,857.0999999940395,0,0,0,75300,WMM1,1178025,false,false,956,image-keyboard-response,7
true,8,1,3,2,false,d,false,false,0.0-2.0-0.27-0.245-3.245,0,0,1,90,false,stim,true,1,546.9000000059605,0,0,0,75300,WMM1,1180097,false,false,959,image-keyboard-response,8
true,8,1,3,1,true,z,false,true,0.0-2.0-0.27-0.246-3.246,0,0,1,90,false,stim,false,0,780.6999999880791,0,0,1,75300,WMM1,1182415,false,false,962,image-keyboard-response,9
true,8,2,3,2,true,d,false,true,0.0-2.0-0.27-0.247-3.247,0,0,1,68,false,stim,false,2,671.0,0,1,2,75300,WMM1,1184621,false,false,965,image-keyboard-response,10
true,8,1,3,1,true,z,false,false,0.0-2.0-0.27-0.248-3.248,0,0,1,90,false,stim,false,0,1142.5999999940395,0,0,1,75300,WMM1,1187309,false,true,968,image-keyboard-response,11
true,8,2,3,2,true,d,false,true,0.0-2.0-0.27-0.249-3.249,0,0,1,68,false,stim,false,2,724.3000000119209,0,1,2,75300,WMM1,1189557,false,false,971,image-keyboard-response,12
true,8,1,3,2,false,d,false,false,0.0-2.0-0.27-0.250-3.250,0,0,1,90,false,stim,true,1,1407.2999999821186,0,0,0,75300,WMM1,1192493,false,false,974,image-keyboard-response,13
true,8,2,3,2,true,d,false,true,0.0-2.0-0.27-0.251-3.251,0,0,1,68,false,stim,false,2,1038.0,0,1,2,75300,WMM1,1195056,false,false,977,image-keyboard-response,14
true,8,2,3,1,false,z,true,false,0.0-2.0-0.28-0.252-3.252,0,0,1,68,false,stim,false,0,1230.199999988079,0,0,1,75300,WMM1,1197814,false,false,980,image-keyboard-response,15
true,8,2,3,2,true,d,false,true,0.0-2.0-0.28-0.253-3.253,0,0,1,68,false,stim,false,2,892.5999999940395,0,1,2,75300,WMM1,1200244,false,false,983,image-keyboard-response,16
true,8,0,3,1,false,z,false,false,0.0-2.0-0.28-0.254-3.254,0,0,1,81,false,stim,true,0,1417.4000000059605,0,0,1,75300,WMM1,1203184,false,false,986,image-keyboard-response,17
true,8,0,3,2,false,d,true,false,0.0-2.0-0.28-0.255-3.255,0,0,1,81,false,stim,false,1,881.2999999821186,0,0,0,75300,WMM1,1205600,false,false,989,image-keyboard-response,18
true,8,2,3,2,true,d,false,true,0.0-2.0-0.28-0.256-3.256,0,0,1,68,false,stim,false,2,670.8999999761581,0,1,2,75300,WMM1,1207822,false,false,992,image-keyboard-response,19
true,8,0,3,1,false,z,false,false,0.0-2.0-0.28-0.257-3.257,0,0,1,81,false,stim,true,0,1063.0999999940395,0,0,1,75300,WMM1,1210430,false,false,995,image-keyboard-response,20
true,8,2,3,2,true,d,false,true,0.0-2.0-0.28-0.258-3.258,0,0,1,68,false,stim,false,2,629.5,0,1,2,75300,WMM1,1212592,false,false,998,image-keyboard-response,21
true,8,1,3,2,false,d,false,false,0.0-2.0-0.28-0.259-3.259,0,0,1,90,false,stim,true,1,938.8999999761581,0,0,0,75300,WMM1,1215086,false,false,1001,image-keyboard-response,22
true,8,2,3,2,true,d,false,true,0.0-2.0-0.28-0.260-3.260,0,0,1,68,false,stim,false,1,708.5,0,0,0,75300,WMM1,1217325,false,false,1004,image-keyboard-response,23
true,8,0,3,1,false,z,false,false,0.0-2.0-0.29-0.261-3.261,0,0,1,81,false,stim,true,0,848.5999999940395,0,0,1,75300,WMM1,1219716,false,false,1007,image-keyboard-response,24
true,8,2,3,2,true,d,false,true,0.0-2.0-0.29-0.262-3.262,0,0,1,68,false,stim,false,1,1247.0999999940395,0,0,0,75300,WMM1,1222500,false,false,1010,image-keyboard-response,25
true,8,2,3,2,true,d,false,true,0.0-2.0-0.29-0.263-3.263,0,0,1,68,false,stim,false,2,482.39999997615814,0,1,2,75300,WMM1,1224516,false,false,1013,image-keyboard-response,26
true,8,2,3,2,true,d,false,true,0.0-2.0-0.29-0.264-3.264,0,0,1,68,false,stim,false,1,1065.4000000059605,0,0,0,75300,WMM1,1227116,false,false,1016,image-keyboard-response,27
true,8,2,3,2,true,d,false,true,0.0-2.0-0.29-0.265-3.265,0,0,1,68,false,stim,false,2,385.0,0,1,2,75300,WMM1,1229036,false,false,1019,image-keyboard-response,28
true,8,2,3,2,true,d,false,true,0.0-2.0-0.29-0.266-3.266,0,0,1,68,false,stim,false,2,427.90000000596046,0,1,2,75300,WMM1,1230988,false,false,1022,image-keyboard-response,29
true,8,1,3,1,true,z,false,true,0.0-2.0-0.29-0.267-3.267,0,0,1,90,false,stim,false,0,870.5999999940395,0,0,1,75300,WMM1,1233387,false,false,1025,image-keyboard-response,30
true,8,2,3,2,true,d,false,true,0.0-2.0-0.29-0.268-3.268,0,0,1,68,false,stim,false,1,707.5,0,0,0,75300,WMM1,1235628,false,false,1028,image-keyboard-response,31
true,8,2,3,1,false,z,true,false,0.0-2.0-0.29-0.269-3.269,0,0,1,68,false,stim,false,0,842.5,0,0,1,75300,WMM1,1238012,false,false,1031,image-keyboard-response,32
true,8,2,3,2,true,d,false,true,0.0-2.0-0.30-0.270-3.270,0,0,1,68,false,stim,false,2,763.0999999940395,0,1,2,75300,WMM1,1240313,false,false,1034,image-keyboard-response,33
true,8,2,3,2,true,d,false,true,0.0-2.0-0.30-0.271-3.271,0,0,1,68,false,stim,false,2,603.2000000178814,0,1,2,75300,WMM1,1242449,false,false,1037,image-keyboard-response,34
true,8,2,3,2,true,d,false,true,0.0-2.0-0.30-0.272-3.272,0,0,1,68,false,stim,false,1,1001.8000000119209,0,0,0,75300,WMM1,1244985,false,false,1040,image-keyboard-response,35
true,8,2,3,2,true,d,false,false,0.0-2.0-0.30-0.273-3.273,0,0,1,68,false,stim,false,2,659.5,0,1,2,75300,WMM1,1247180,false,true,1043,image-keyboard-response,36
true,8,1,3,1,true,z,false,true,0.0-2.0-0.30-0.274-3.274,0,0,1,90,false,stim,false,0,665.6000000238419,0,0,1,75300,WMM1,1249388,false,false,1046,image-keyboard-response,37
true,8,1,3,1,true,z,false,false,0.0-2.0-0.30-0.275-3.275,0,0,1,90,false,stim,false,0,619.0,0,0,1,75300,WMM1,1251536,false,true,1049,image-keyboard-response,38
true,8,1,3,1,true,z,false,true,0.0-2.0-0.30-0.276-3.276,0,0,1,90,false,stim,false,0,576.8000000119209,0,0,1,75300,WMM1,1253644,false,false,1052,image-keyboard-response,39
true,8,2,3,2,true,d,false,true,0.0-2.0-0.30-0.277-3.277,0,0,1,68,false,stim,false,1,1020.7000000178814,0,0,0,75300,WMM1,1256186,false,false,1055,image-keyboard-response,40
true,8,2,3,2,true,d,false,true,0.0-2.0-0.30-0.278-3.278,0,0,1,68,false,stim,false,1,551.9000000059605,0,0,0,75300,WMM1,1258272,false,false,1058,image-keyboard-response,41
true,8,1,3,1,true,z,false,true,0.0-2.0-0.31-0.279-3.279,0,0,1,90,false,stim,false,0,1196.5999999940395,0,0,1,75300,WMM1,1260999,false,false,1061,image-keyboard-response,42
true,8,2,3,2,true,d,false,true,0.0-2.0-0.31-0.280-3.280,0,0,1,68,false,stim,false,2,745.2999999821186,0,0,2,75300,WMM1,1263278,false,false,1064,image-keyboard-response,43
true,8,1,3,1,true,z,false,true,0.0-2.0-0.31-0.281-3.281,0,0,1,90,false,stim,false,0,806.2999999821186,0,0,1,75300,WMM1,1265607,false,false,1067,image-keyboard-response,44
true,8,2,3,2,true,d,false,true,0.0-2.0-0.31-0.282-3.282,0,0,1,68,false,stim,false,2,848.4000000059605,0,0,2,75300,WMM1,1267981,false,false,1070,image-keyboard-response,45
true,8,2,3,2,true,d,false,true,0.0-2.0-0.31-0.283-3.283,0,0,1,68,false,stim,false,1,1471.2999999821186,0,0,0,75300,WMM1,1270990,false,false,1073,image-keyboard-response,46
true,8,2,3,2,true,d,false,true,0.0-2.0-0.31-0.284-3.284,0,0,1,68,false,stim,false,1,650.0,0,0,0,75300,WMM1,1273166,false,false,1076,image-keyboard-response,47
true,8,2,3,2,true,d,false,true,0.0-2.0-0.31-0.285-3.285,0,0,1,68,false,stim,false,1,963.4000000059605,0,0,0,75300,WMM1,1275664,false,false,1079,image-keyboard-response,48
true,9,2,1,2,true,d,false,true,0.0-2.0-0.31-0.286-3.286,0,0,0,68,true,stim,false,1,975.2000000178814,0,0,1,75300,WMM1,1278176,false,false,1082,image-keyboard-response,1
true,9,2,1,0,false,q,false,false,0.0-2.0-0.31-0.287-3.287,0,0,0,68,false,stim,true,2,1151.5,0,0,2,75300,WMM1,1280853,false,false,1085,image-keyboard-response,2
true,9,2,1,2,true,d,false,true,0.0-2.0-0.32-0.288-3.288,0,0,0,68,false,stim,false,1,970.1000000238419,0,0,1,75300,WMM1,1283358,false,false,1088,image-keyboard-response,3
true,9,2,1,2,true,d,false,true,0.0-2.0-0.32-0.289-3.289,0,0,0,68,false,stim,false,1,1406.5999999940395,0,0,1,75300,WMM1,1286292,false,false,1091,image-keyboard-response,4
true,9,1,1,0,false,q,true,false,0.0-2.0-0.32-0.290-3.290,0,0,0,90,false,stim,false,2,790.1999999880791,0,0,2,75300,WMM1,1288608,false,false,1094,image-keyboard-response,5
true,9,2,1,0,false,q,false,false,0.0-2.0-0.32-0.291-3.291,0,0,0,68,false,stim,true,2,815.4000000059605,0,0,0,75300,WMM1,1290949,false,false,1097,image-keyboard-response,6
true,9,1,1,0,false,q,true,false,0.0-2.0-0.32-0.292-3.292,0,0,0,90,false,stim,false,2,779.7000000178814,0,0,0,75300,WMM1,1293252,false,false,1100,image-keyboard-response,7
true,9,2,1,2,true,d,false,true,0.0-2.0-0.32-0.293-3.293,0,0,0,68,false,stim,false,1,1036.199999988079,0,0,1,75300,WMM1,1295836,false,false,1103,image-keyboard-response,8
true,9,0,1,0,true,q,false,true,0.0-2.0-0.32-0.294-3.294,0,0,0,81,false,stim,false,2,691.7000000178814,0,0,2,75300,WMM1,1298057,false,false,1106,image-keyboard-response,9
true,9,0,1,0,true,q,false,false,0.0-2.0-0.32-0.295-3.295,0,0,0,81,false,stim,false,2,937.8000000119209,0,0,0,75300,WMM1,1300522,false,true,1109,image-keyboard-response,10
true,9,2,1,0,false,q,false,false,0.0-2.0-0.32-0.296-3.296,0,0,0,68,false,stim,true,2,760.5,0,0,2,75300,WMM1,1302809,false,false,1112,image-keyboard-response,11
true,9,0,1,0,true,q,false,false,0.0-2.0-0.33-0.297-3.297,0,0,0,81,false,stim,false,2,508.90000000596046,0,0,2,75300,WMM1,1304841,false,true,1115,image-keyboard-response,12
true,9,1,1,0,false,q,true,false,0.0-2.0-0.33-0.298-3.298,0,0,0,90,false,stim,false,2,694.1999999880791,0,0,2,75300,WMM1,1307060,false,false,1118,image-keyboard-response,13
true,9,2,1,2,true,d,false,true,0.0-2.0-0.33-0.299-3.299,0,0,0,68,false,stim,false,1,891.3000000119209,0,0,1,75300,WMM1,1309473,false,false,1121,image-keyboard-response,14
true,9,1,1,0,false,q,true,false,0.0-2.0-0.33-0.300-3.300,0,0,0,90,false,stim,false,2,1092.4000000059605,0,0,0,75300,WMM1,1312098,false,false,1124,image-keyboard-response,15
true,9,2,1,2,true,d,false,true,0.0-2.0-0.33-0.301-3.301,0,0,0,68,false,stim,false,1,1305.2000000178814,0,0,1,75300,WMM1,1314940,false,false,1127,image-keyboard-response,16
true,9,0,1,0,true,q,false,true,0.0-2.0-0.33-0.302-3.302,0,0,0,81,false,stim,false,2,1402.199999988079,0,0,0,75300,WMM1,1317868,false,false,1130,image-keyboard-response,17
true,9,2,1,2,true,d,false,true,0.0-2.0-0.33-0.303-3.303,0,0,0,68,false,stim,false,1,819.5,0,0,1,75300,WMM1,1320219,false,false,1133,image-keyboard-response,18
true,9,2,1,0,false,q,false,false,0.0-2.0-0.33-0.304-3.304,0,0,0,68,false,stim,true,2,1860.2000000178814,0,0,2,75300,WMM1,1323610,false,false,1136,image-keyboard-response,19
true,9,0,1,0,true,q,false,true,0.0-2.0-0.33-0.305-3.305,0,0,0,81,false,stim,false,2,951.7999999821186,0,0,0,75300,WMM1,1326088,false,false,1139,image-keyboard-response,20
true,9,1,1,0,false,q,true,false,0.0-2.0-0.34-0.306-3.306,0,0,0,90,false,stim,false,2,741.5999999940395,0,0,2,75300,WMM1,1328360,false,false,1142,image-keyboard-response,21
true,9,0,1,0,true,q,false,true,0.0-2.0-0.34-0.307-3.307,0,0,0,81,false,stim,false,2,1002.5999999940395,0,0,0,75300,WMM1,1330902,false,false,1145,image-keyboard-response,22
true,9,1,1,2,false,d,false,false,0.0-2.0-0.34-0.308-3.308,0,0,0,90,false,stim,true,1,757.1000000238419,0,0,1,75300,WMM1,1333206,false,false,1148,image-keyboard-response,23
true,9,1,1,0,false,q,true,false,0.0-2.0-0.34-0.309-3.309,0,0,0,90,false,stim,false,2,1546.0,0,0,2,75300,WMM1,1336296,false,false,1151,image-keyboard-response,24
true,9,1,1,2,false,d,false,false,0.0-2.0-0.34-0.310-3.310,0,0,0,90,false,stim,true,1,2117.0999999940395,0,0,1,75300,WMM1,1339952,false,false,1154,image-keyboard-response,25
true,9,0,1,0,true,q,false,true,0.0-2.0-0.34-0.311-3.311,0,0,0,81,false,stim,false,2,757.0999999940395,0,0,0,75300,WMM1,1342256,false,false,1157,image-keyboard-response,26
true,9,0,1,2,false,d,true,false,0.0-2.0-0.34-0.312-3.312,0,0,0,81,false,stim,false,1,782.5999999940395,0,0,1,75300,WMM1,1344584,false,false,1160,image-keyboard-response,27
true,9,0,1,0,true,q,false,true,0.0-2.0-0.34-0.313-3.313,0,0,0,81,false,stim,false,2,1033.699999988079,0,0,0,75300,WMM1,1347149,false,false,1163,image-keyboard-response,28
true,9,2,1,0,false,q,false,false,0.0-2.0-0.34-0.314-3.314,0,0,0,68,false,stim,true,2,1187.7999999821186,0,0,2,75300,WMM1,1349870,false,false,1166,image-keyboard-response,29
true,9,1,1,0,false,q,true,false,0.0-2.0-0.35-0.315-3.315,0,0,0,90,false,stim,false,2,781.4000000059605,0,0,2,75300,WMM1,1352197,false,false,1169,image-keyboard-response,30
true,9,0,1,0,true,q,false,false,0.0-2.0-0.35-0.316-3.316,0,0,0,81,false,stim,false,2,963.7000000178814,0,0,0,75300,WMM1,1354704,false,true,1172,image-keyboard-response,31
true,9,0,1,0,true,q,false,true,0.0-2.0-0.35-0.317-3.317,0,0,0,81,false,stim,false,2,775.0999999940395,0,0,0,75300,WMM1,1357008,false,false,1175,image-keyboard-response,32
true,9,1,1,2,false,d,false,false,0.0-2.0-0.35-0.318-3.318,0,0,0,90,false,stim,true,1,1062.699999988079,0,0,1,75300,WMM1,1359611,false,false,1178,image-keyboard-response,33
true,9,2,1,0,false,q,false,false,0.0-2.0-0.35-0.319-3.319,0,0,0,68,false,stim,true,2,643.8999999761581,0,0,2,75300,WMM1,1361793,false,false,1181,image-keyboard-response,34
true,9,0,1,0,true,q,false,true,0.0-2.0-0.35-0.320-3.320,0,0,0,81,false,stim,false,2,711.6999999880791,0,0,0,75300,WMM1,1364044,false,false,1184,image-keyboard-response,35
true,9,2,1,2,true,d,false,true,0.0-2.0-0.35-0.321-3.321,0,0,0,68,false,stim,false,1,972.0,0,0,1,75300,WMM1,1366553,false,false,1187,image-keyboard-response,36
true,9,1,1,0,false,q,true,false,0.0-2.0-0.35-0.322-3.322,0,0,0,90,false,stim,false,2,895.5999999940395,0,0,2,75300,WMM1,1368979,false,false,1190,image-keyboard-response,37
true,9,2,1,2,true,d,false,true,0.0-2.0-0.35-0.323-3.323,0,0,0,68,false,stim,false,1,695.4000000059605,0,0,1,75300,WMM1,1371211,false,false,1193,image-keyboard-response,38
true,9,0,1,0,true,q,false,true,0.0-2.0-0.36-0.324-3.324,0,0,0,81,false,stim,false,2,741.5999999940395,0,0,2,75300,WMM1,1373489,false,false,1196,image-keyboard-response,39
true,9,2,1,2,true,d,false,true,0.0-2.0-0.36-0.325-3.325,0,0,0,68,false,stim,false,1,882.8000000119209,0,0,1,75300,WMM1,1375898,false,false,1199,image-keyboard-response,40
true,9,0,1,0,true,q,false,true,0.0-2.0-0.36-0.326-3.326,0,0,0,81,false,stim,false,2,633.5,0,0,0,75300,WMM1,1378083,false,false,1202,image-keyboard-response,41
true,9,2,1,2,true,d,false,true,0.0-2.0-0.36-0.327-3.327,0,0,0,68,false,stim,false,1,2087.5999999940395,0,0,1,75300,WMM1,1381706,false,false,1205,image-keyboard-response,42
true,9,2,1,2,true,d,false,true,0.0-2.0-0.36-0.328-3.328,0,0,0,68,false,stim,false,1,568.0999999940395,0,0,1,75300,WMM1,1383817,false,false,1208,image-keyboard-response,43
true,9,2,1,0,false,q,false,false,0.0-2.0-0.36-0.329-3.329,0,0,0,68,false,stim,true,2,967.0999999940395,0,0,2,75300,WMM1,1386316,false,false,1211,image-keyboard-response,44
true,9,2,1,0,false,q,false,false,0.0-2.0-0.36-0.330-3.330,0,0,0,68,false,stim,true,2,1166.9000000059605,0,0,0,75300,WMM1,1389033,false,false,1214,image-keyboard-response,45
true,9,0,1,0,true,q,false,true,0.0-2.0-0.36-0.331-3.331,0,0,0,81,false,stim,false,2,546.2999999821186,0,0,0,75300,WMM1,1391115,false,false,1217,image-keyboard-response,46
true,9,0,1,0,true,q,false,true,0.0-2.0-0.36-0.332-3.332,0,0,0,81,false,stim,false,2,1211.0999999940395,0,0,2,75300,WMM1,1393867,false,false,1220,image-keyboard-response,47
true,9,0,1,0,true,q,false,true,0.0-2.0-0.37-0.333-3.333,0,0,0,81,false,stim,false,2,490.39999997615814,0,0,0,75300,WMM1,1395888,false,false,1223,image-keyboard-response,48
true,9,0,1,0,true,q,false,true,0.0-2.0-0.37-0.334-3.334,0,0,0,81,false,stim,false,2,532.4000000059605,0,0,0,75300,WMM1,1397964,false,false,1226,image-keyboard-response,49
true,9,2,1,2,true,d,false,true,0.0-2.0-0.37-0.335-3.335,0,0,0,68,false,stim,false,1,970.4000000059605,0,0,1,75300,WMM1,1400470,false,false,1229,image-keyboard-response,50
true,9,0,1,0,true,q,false,true,0.0-2.0-0.37-0.336-3.336,0,0,0,81,false,stim,false,2,709.6999999880791,0,0,2,75300,WMM1,1402704,false,false,1232,image-keyboard-response,51
true,9,0,1,0,true,q,false,true,0.0-2.0-0.37-0.337-3.337,0,0,0,81,false,stim,false,2,655.8999999761581,0,0,0,75300,WMM1,1404887,false,false,1235,image-keyboard-response,52
true,9,0,1,0,true,q,false,true,0.0-2.0-0.37-0.338-3.338,0,0,0,81,false,stim,false,2,680.1999999880791,0,0,2,75300,WMM1,1407095,false,false,1238,image-keyboard-response,53
true,9,0,1,0,true,q,false,true,0.0-2.0-0.37-0.339-3.339,0,0,0,81,false,stim,false,2,590.0,0,0,2,75300,WMM1,1409222,false,false,1241,image-keyboard-response,54
true,9,0,1,2,false,d,true,false,0.0-2.0-0.37-0.340-3.340,0,0,0,81,false,stim,false,1,455.2000000178814,0,0,1,75300,WMM1,1411200,false,false,1244,image-keyboard-response,55
true,9,2,1,2,true,d,false,true,0.0-2.0-0.37-0.341-3.341,0,0,0,68,false,stim,false,1,570.5999999940395,0,0,1,75300,WMM1,1413303,false,false,1247,image-keyboard-response,56
true,9,0,1,0,true,q,false,true,0.0-2.0-0.38-0.342-3.342,0,0,0,81,false,stim,false,2,511.2000000178814,0,0,0,75300,WMM1,1415341,false,false,1250,image-keyboard-response,57
true,9,0,1,0,true,q,false,true,0.0-2.0-0.38-0.343-3.343,0,0,0,81,false,stim,false,2,541.5,0,0,0,75300,WMM1,1417408,false,false,1253,image-keyboard-response,58
true,9,0,1,0,true,q,false,true,0.0-2.0-0.38-0.344-3.344,0,0,0,81,false,stim,false,2,660.5,0,0,2,75300,WMM1,1419592,false,false,1256,image-keyboard-response,59
true,9,2,1,2,true,d,false,true,0.0-2.0-0.38-0.345-3.345,0,0,0,68,false,stim,false,1,721.5,0,0,1,75300,WMM1,1421836,false,false,1259,image-keyboard-response,60
true,10,2,2,0,false,q,false,true,0.0-2.0-0.38-0.346-3.346,0,0,0,68,true,stim,true,2,682.5,0,0,1,75300,WMM1,1424047,false,true,1262,image-keyboard-response,1
true,10,0,2,1,false,z,false,false,0.0-2.0-0.38-0.347-3.347,0,0,0,81,false,stim,true,0,655.9000000059605,0,0,0,75300,WMM1,1426239,false,false,1265,image-keyboard-response,2
true,10,0,2,2,false,d,false,false,0.0-2.0-0.38-0.348-3.348,0,0,0,81,false,stim,true,0,1419.800000011921,0,0,2,75300,WMM1,1429185,false,false,1268,image-keyboard-response,3
true,10,1,2,2,false,d,true,false,0.0-2.0-0.38-0.349-3.349,0,0,0,90,false,stim,false,0,859.0,0,0,2,75300,WMM1,1431564,false,false,1271,image-keyboard-response,4
true,10,2,2,0,false,q,false,false,0.0-2.0-0.38-0.350-3.350,0,0,0,68,false,stim,true,2,1241.5999999940395,0,0,1,75300,WMM1,1434339,false,false,1274,image-keyboard-response,5
true,10,1,2,1,true,z,false,true,0.0-2.0-0.39-0.351-3.351,0,0,0,90,false,stim,false,0,1072.2999999821186,0,0,0,75300,WMM1,1436938,false,false,1277,image-keyboard-response,6
true,10,2,2,2,true,d,false,false,0.0-2.0-0.39-0.352-3.352,0,0,0,68,false,stim,false,0,798.8000000119209,0,0,2,75300,WMM1,1439281,false,true,1280,image-keyboard-response,7
true,10,0,2,2,false,d,false,false,0.0-2.0-0.39-0.353-3.353,0,0,0,81,false,stim,true,0,483.59999999403954,0,0,2,75300,WMM1,1441297,false,false,1283,image-keyboard-response,8
true,10,2,2,0,false,q,false,false,0.0-2.0-0.39-0.354-3.354,0,0,0,68,false,stim,true,2,1124.4000000059605,0,0,1,75300,WMM1,1443956,false,false,1286,image-keyboard-response,9
true,10,1,2,2,false,d,true,false,0.0-2.0-0.39-0.355-3.355,0,0,0,90,false,stim,false,0,779.5999999940395,0,0,2,75300,WMM1,1446259,false,false,1289,image-keyboard-response,10
true,10,1,2,1,true,z,false,true,0.0-2.0-0.39-0.356-3.356,0,0,0,90,false,stim,false,0,987.2999999821186,0,0,0,75300,WMM1,1448787,false,false,1292,image-keyboard-response,11
true,10,0,2,0,true,q,false,true,0.0-2.0-0.39-0.357-3.357,0,0,0,81,false,stim,false,2,595.5999999940395,0,0,1,75300,WMM1,1450913,false,false,1295,image-keyboard-response,12
true,10,0,2,0,true,q,false,true,0.0-2.0-0.39-0.358-3.358,0,0,0,81,false,stim,false,2,653.0,0,0,1,75300,WMM1,1453099,false,false,1298,image-keyboard-response,13
true,10,1,2,1,true,z,false,true,0.0-2.0-0.39-0.359-3.359,0,0,0,90,false,stim,false,0,721.7000000178814,0,0,0,75300,WMM1,1455369,false,false,1301,image-keyboard-response,14
true,10,0,2,0,true,q,false,true,0.0-2.0-0.40-0.360-3.360,0,0,0,81,false,stim,false,2,719.0,0,0,1,75300,WMM1,1457617,false,false,1304,image-keyboard-response,15
true,10,1,2,1,true,z,false,true,0.0-2.0-0.40-0.361-3.361,0,0,0,90,false,stim,false,0,896.1999999880791,0,0,0,75300,WMM1,1460043,false,false,1307,image-keyboard-response,16
true,10,2,2,2,true,d,false,true,0.0-2.0-0.40-0.362-3.362,0,0,0,68,false,stim,false,0,956.6999999880791,0,0,2,75300,WMM1,1462538,false,false,1310,image-keyboard-response,17
true,10,0,2,1,false,z,false,false,0.0-2.0-0.40-0.363-3.363,0,0,0,81,false,stim,true,0,894.7999999821186,0,0,0,75300,WMM1,1464977,false,false,1313,image-keyboard-response,18
true,10,2,2,2,true,d,false,true,0.0-2.0-0.40-0.364-3.364,0,0,0,68,false,stim,false,0,622.2000000178814,0,0,2,75300,WMM1,1467143,false,false,1316,image-keyboard-response,19
true,10,0,2,0,true,q,false,true,0.0-2.0-0.40-0.365-3.365,0,0,0,81,false,stim,false,2,538.8000000119209,0,0,1,75300,WMM1,1469219,false,false,1319,image-keyboard-response,20
true,10,1,2,1,true,z,false,true,0.0-2.0-0.40-0.366-3.366,0,0,0,90,false,stim,false,0,549.3000000119209,0,0,0,75300,WMM1,1471311,false,false,1322,image-keyboard-response,21
true,10,2,2,2,true,d,false,true,0.0-2.0-0.40-0.367-3.367,0,0,0,68,false,stim,false,0,733.3000000119209,0,0,2,75300,WMM1,1473581,false,false,1325,image-keyboard-response,22
true,10,0,2,0,true,q,false,true,0.0-2.0-0.40-0.368-3.368,0,0,0,81,false,stim,false,2,955.8000000119209,0,0,1,75300,WMM1,1476085,false,false,1328,image-keyboard-response,23
true,10,0,2,0,true,q,false,true,0.0-2.0-0.41-0.369-3.369,0,0,0,81,false,stim,false,2,457.5,0,0,1,75300,WMM1,1478088,false,false,1331,image-keyboard-response,24
true,10,2,2,2,true,d,false,true,0.0-2.0-0.41-0.370-3.370,0,0,0,68,false,stim,false,0,751.0999999940395,0,0,2,75300,WMM1,1480381,false,false,1334,image-keyboard-response,25
true,10,1,2,1,true,z,false,false,0.0-2.0-0.41-0.371-3.371,0,0,0,90,false,stim,false,0,1132.4000000059605,0,0,0,75300,WMM1,1483047,false,true,1337,image-keyboard-response,26
true,10,2,2,2,true,d,false,true,0.0-2.0-0.41-0.372-3.372,0,0,0,68,false,stim,false,0,686.5999999940395,0,1,2,75300,WMM1,1485269,false,false,1340,image-keyboard-response,27
true,10,2,2,2,true,d,false,true,0.0-2.0-0.41-0.373-3.373,0,0,0,68,false,stim,false,0,448.60000002384186,0,1,2,75300,WMM1,1487247,false,false,1343,image-keyboard-response,28
true,10,1,2,1,true,z,false,true,0.0-2.0-0.41-0.374-3.374,0,0,0,90,false,stim,false,0,825.0,0,0,0,75300,WMM1,1489605,false,false,1346,image-keyboard-response,29
true,10,0,2,0,true,q,false,false,0.0-2.0-0.41-0.375-3.375,0,0,0,81,false,stim,false,2,1460.800000011921,0,0,1,75300,WMM1,1492591,false,true,1349,image-keyboard-response,30
true,10,1,2,1,true,z,false,true,0.0-2.0-0.41-0.376-3.376,0,0,0,90,false,stim,false,0,797.5,0,0,0,75300,WMM1,1494911,false,false,1352,image-keyboard-response,31
true,10,0,2,0,true,q,false,true,0.0-2.0-0.41-0.377-3.377,0,0,0,81,false,stim,false,2,1848.5999999940395,0,0,1,75300,WMM1,1498299,false,false,1355,image-keyboard-response,32
true,10,1,2,1,true,z,false,true,0.0-2.0-0.42-0.378-3.378,0,0,0,90,false,stim,false,0,1585.0,0,0,0,75300,WMM1,1501415,false,false,1358,image-keyboard-response,33
true,10,2,2,2,true,d,false,true,0.0-2.0-0.42-0.379-3.379,0,0,0,68,false,stim,false,0,1008.3000000119209,0,1,2,75300,WMM1,1503957,false,false,1361,image-keyboard-response,34
true,10,0,2,0,true,q,false,true,0.0-2.0-0.42-0.380-3.380,0,0,0,81,false,stim,false,2,1432.300000011921,0,0,1,75300,WMM1,1506929,false,false,1364,image-keyboard-response,35
true,10,1,2,1,true,z,false,false,0.0-2.0-0.42-0.381-3.381,0,0,0,90,false,stim,false,0,642.5,0,0,0,75300,WMM1,1509107,false,true,1367,image-keyboard-response,36
true,11,0,3,2,false,d,false,false,0.0-2.0-0.42-0.382-3.382,0,0,1,81,true,stim,true,0,684.8000000119209,0,0,1,75300,WMM1,1511315,false,false,1370,image-keyboard-response,1
true,11,1,3,2,false,d,true,false,0.0-2.0-0.42-0.383-3.383,0,0,1,90,false,stim,false,0,804.3000000119209,0,0,1,75300,WMM1,1513652,false,false,1373,image-keyboard-response,2
true,11,2,3,2,true,d,false,true,0.0-2.0-0.42-0.384-3.384,0,0,1,68,false,stim,false,2,917.0,0,1,2,75300,WMM1,1516097,false,false,1376,image-keyboard-response,3
true,11,2,3,2,true,d,false,true,0.0-2.0-0.42-0.385-3.385,0,0,1,68,false,stim,false,2,603.4000000059605,0,1,2,75300,WMM1,1518233,false,false,1379,image-keyboard-response,4
true,11,2,3,0,false,q,true,false,0.0-2.0-0.42-0.386-3.386,0,0,1,68,false,stim,false,1,1287.800000011921,0,0,0,75300,WMM1,1521051,false,false,1382,image-keyboard-response,5
true,11,0,3,0,true,q,false,true,0.0-2.0-0.43-0.387-3.387,0,0,1,81,false,stim,false,1,548.1000000238419,0,0,0,75300,WMM1,1523131,false,false,1385,image-keyboard-response,6
true,11,0,3,0,true,q,false,true,0.0-2.0-0.43-0.388-3.388,0,0,1,81,false,stim,false,1,548.0,0,0,0,75300,WMM1,1525211,false,false,1388,image-keyboard-response,7
true,11,2,3,2,true,d,false,true,0.0-2.0-0.43-0.389-3.389,0,0,1,68,false,stim,false,2,625.0999999940395,0,1,2,75300,WMM1,1527369,false,false,1391,image-keyboard-response,8
true,11,2,3,2,true,d,false,true,0.0-2.0-0.43-0.390-3.390,0,0,1,68,false,stim,false,0,1437.300000011921,0,0,1,75300,WMM1,1530337,false,false,1394,image-keyboard-response,9
true,11,2,3,2,true,d,false,true,0.0-2.0-0.43-0.391-3.391,0,0,1,68,false,stim,false,0,892.1999999880791,0,0,1,75300,WMM1,1532771,false,false,1397,image-keyboard-response,10
true,11,2,3,2,true,d,false,true,0.0-2.0-0.43-0.392-3.392,0,0,1,68,false,stim,false,2,904.4000000059605,0,1,2,75300,WMM1,1535204,false,false,1400,image-keyboard-response,11
true,11,0,3,0,true,q,false,true,0.0-2.0-0.43-0.393-3.393,0,0,1,81,false,stim,false,1,712.0,0,0,0,75300,WMM1,1537475,false,false,1403,image-keyboard-response,12
true,11,2,3,2,true,d,false,true,0.0-2.0-0.43-0.394-3.394,0,0,1,68,false,stim,false,0,1015.3000000119209,0,0,1,75300,WMM1,1540028,false,false,1406,image-keyboard-response,13
true,11,2,3,2,true,d,false,true,0.0-2.0-0.43-0.395-3.395,0,0,1,68,false,stim,false,2,795.6000000238419,0,1,2,75300,WMM1,1542359,false,false,1409,image-keyboard-response,14
true,11,2,3,2,true,d,false,true,0.0-2.0-0.44-0.396-3.396,0,0,1,68,false,stim,false,2,726.4000000059605,0,1,2,75300,WMM1,1544623,false,false,1412,image-keyboard-response,15
true,11,2,3,2,true,d,false,true,0.0-2.0-0.44-0.397-3.397,0,0,1,68,false,stim,false,0,1068.0,0,0,1,75300,WMM1,1547215,false,false,1415,image-keyboard-response,16
true,11,2,3,2,true,d,false,true,0.0-2.0-0.44-0.398-3.398,0,0,1,68,false,stim,false,2,522.9000000059605,0,1,2,75300,WMM1,1549278,false,false,1418,image-keyboard-response,17
true,11,0,3,0,true,q,false,false,0.0-2.0-0.44-0.399-3.399,0,0,1,81,false,stim,false,1,520.6000000238419,0,0,0,75300,WMM1,1551333,false,true,1421,image-keyboard-response,18
true,11,2,3,2,true,d,false,true,0.0-2.0-0.44-0.400-3.400,0,0,1,68,false,stim,false,0,750.0,0,0,1,75300,WMM1,1553613,false,false,1424,image-keyboard-response,19
true,11,2,3,2,true,d,false,true,0.0-2.0-0.44-0.401-3.401,0,0,1,68,false,stim,false,2,507.0,0,1,2,75300,WMM1,1555652,false,false,1427,image-keyboard-response,20
true,11,2,3,2,true,d,false,true,0.0-2.0-0.44-0.402-3.402,0,0,1,68,false,stim,false,0,729.4000000059605,0,0,1,75300,WMM1,1557925,false,false,1430,image-keyboard-response,21
true,11,1,3,0,false,q,false,false,0.0-2.0-0.44-0.403-3.403,0,0,1,90,false,stim,true,1,1434.800000011921,0,0,0,75300,WMM1,1560897,false,false,1433,image-keyboard-response,22
true,11,0,3,0,true,q,false,false,0.0-2.0-0.44-0.404-3.404,0,0,1,81,false,stim,false,1,642.8000000119209,0,0,0,75300,WMM1,1563089,false,true,1436,image-keyboard-response,23
true,11,2,3,2,true,d,false,true,0.0-2.0-0.45-0.405-3.405,0,0,1,68,false,stim,false,2,632.5999999940395,0,0,2,75300,WMM1,1565247,false,false,1439,image-keyboard-response,24
true,11,2,3,2,true,d,false,true,0.0-2.0-0.45-0.406-3.406,0,0,1,68,false,stim,false,2,730.5,0,0,2,75300,WMM1,1567513,false,false,1442,image-keyboard-response,25
true,11,2,3,0,false,q,true,false,0.0-2.0-0.45-0.407-3.407,0,0,1,68,false,stim,false,1,445.2000000178814,0,0,0,75300,WMM1,1569491,false,false,1445,image-keyboard-response,26
true,11,1,3,0,false,q,false,false,0.0-2.0-0.45-0.408-3.408,0,0,1,90,false,stim,true,1,794.6999999880791,0,0,0,75300,WMM1,1571825,false,false,1448,image-keyboard-response,27
true,11,2,3,2,true,d,false,true,0.0-2.0-0.45-0.409-3.409,0,0,1,68,false,stim,false,0,1054.0,0,0,1,75300,WMM1,1574408,false,false,1451,image-keyboard-response,28
true,11,2,3,2,true,d,false,false,0.0-2.0-0.45-0.410-3.410,0,0,1,68,false,stim,false,0,489.59999999403954,0,0,1,75300,WMM1,1576427,false,true,1454,image-keyboard-response,29
true,11,2,3,2,true,d,false,true,0.0-2.0-0.45-0.411-3.411,0,0,1,68,false,stim,false,2,556.0999999940395,0,0,2,75300,WMM1,1578514,false,false,1457,image-keyboard-response,30
true,12,2,1,0,false,q,false,false,0.0-2.0-0.45-0.412-3.412,0,0,0,68,true,stim,true,2,996.0999999940395,0,0,1,75300,WMM1,1581035,false,false,1460,image-keyboard-response,1
true,12,0,1,1,false,z,false,true,0.0-2.0-0.45-0.413-3.413,0,0,0,81,false,stim,true,0,1031.800000011921,0,0,0,75300,WMM1,1583605,false,true,1463,image-keyboard-response,2
true,12,1,1,0,false,q,true,false,0.0-2.0-0.46-0.414-3.414,0,0,0,90,false,stim,false,2,1071.8999999761581,0,0,1,75300,WMM1,1586226,false,false,1466,image-keyboard-response,3
true,12,0,1,1,false,z,false,false,0.0-2.0-0.46-0.415-3.415,0,0,0,81,false,stim,true,0,723.2000000178814,0,0,0,75300,WMM1,1588479,false,false,1469,image-keyboard-response,4
true,12,2,1,0,false,q,false,false,0.0-2.0-0.46-0.416-3.416,0,0,0,68,false,stim,true,2,996.3000000119209,0,0,2,75300,WMM1,1591000,false,false,1472,image-keyboard-response,5
true,12,0,1,1,false,z,false,false,0.0-2.0-0.46-0.417-3.417,0,0,0,81,false,stim,true,0,804.5999999940395,0,0,0,75300,WMM1,1593343,false,false,1475,image-keyboard-response,6
true,12,2,1,0,false,q,false,false,0.0-2.0-0.46-0.418-3.418,0,0,0,68,false,stim,true,2,1341.7999999821186,0,0,2,75300,WMM1,1596215,false,false,1478,image-keyboard-response,7
true,12,1,1,0,false,q,true,false,0.0-2.0-0.46-0.419-3.419,0,0,0,90,false,stim,false,2,722.9000000059605,0,0,1,75300,WMM1,1598460,false,false,1481,image-keyboard-response,8
true,12,1,1,0,false,q,true,false,0.0-2.0-0.46-0.420-3.420,0,0,0,90,false,stim,false,2,720.7999999821186,0,0,2,75300,WMM1,1600707,false,false,1484,image-keyboard-response,9
true,12,0,1,0,true,q,false,true,0.0-2.0-0.46-0.421-3.421,0,0,0,81,false,stim,false,2,1150.7999999821186,0,0,1,75300,WMM1,1603404,false,false,1487,image-keyboard-response,10
true,12,1,1,1,true,z,false,true,0.0-2.0-0.46-0.422-3.422,0,0,0,90,false,stim,false,0,1188.0,0,0,0,75300,WMM1,1606118,false,false,1490,image-keyboard-response,11
true,12,1,1,1,true,z,false,true,0.0-2.0-0.47-0.423-3.423,0,0,0,90,false,stim,false,0,717.8000000119209,0,0,0,75300,WMM1,1608372,false,false,1493,image-keyboard-response,12
true,12,1,1,1,true,z,false,true,0.0-2.0-0.47-0.424-3.424,0,0,0,90,false,stim,false,0,612.1000000238419,0,0,0,75300,WMM1,1610516,false,false,1496,image-keyboard-response,13
true,12,2,1,0,false,q,false,false,0.0-2.0-0.47-0.425-3.425,0,0,0,68,false,stim,true,2,1265.1000000238419,0,0,2,75300,WMM1,1613302,false,false,1499,image-keyboard-response,14
true,12,1,1,1,true,z,false,true,0.0-2.0-0.47-0.426-3.426,0,0,0,90,false,stim,false,0,561.6999999880791,0,0,0,75300,WMM1,1615419,false,false,1502,image-keyboard-response,15
true,12,1,1,0,false,q,true,false,0.0-2.0-0.47-0.427-3.427,0,0,0,90,false,stim,false,2,918.3999999761581,0,0,2,75300,WMM1,1617870,false,false,1505,image-keyboard-response,16
true,12,0,1,0,true,q,false,true,0.0-2.0-0.47-0.428-3.428,0,0,0,81,false,stim,false,2,953.5,0,0,1,75300,WMM1,1620356,false,false,1508,image-keyboard-response,17
true,12,0,1,0,true,q,false,true,0.0-2.0-0.47-0.429-3.429,0,0,0,81,false,stim,false,2,799.6000000238419,0,0,1,75300,WMM1,1622686,false,false,1511,image-keyboard-response,18
true,12,0,1,0,true,q,false,true,0.0-2.0-0.47-0.430-3.430,0,0,0,81,false,stim,false,2,504.69999998807907,0,0,1,75300,WMM1,1624724,false,false,1514,image-keyboard-response,19
true,12,1,1,0,false,q,true,true,0.0-2.0-0.47-0.431-3.431,0,0,0,90,false,stim,false,2,1141.300000011921,0,0,2,75300,WMM1,1627395,false,true,1517,image-keyboard-response,20
true,12,1,1,1,true,z,false,true,0.0-2.0-0.48-0.432-3.432,0,0,0,90,false,stim,false,0,489.09999999403954,0,0,0,75300,WMM1,1629426,false,false,1520,image-keyboard-response,21
true,12,1,1,0,false,q,true,false,0.0-2.0-0.48-0.433-3.433,0,0,0,90,false,stim,false,2,575.3000000119209,0,0,1,75300,WMM1,1631547,false,false,1523,image-keyboard-response,22
true,12,1,1,1,true,z,false,false,0.0-2.0-0.48-0.434-3.434,0,0,0,90,false,stim,false,0,506.90000000596046,0,0,0,75300,WMM1,1633594,false,true,1526,image-keyboard-response,23
true,12,0,1,1,false,z,false,false,0.0-2.0-0.48-0.435-3.435,0,0,0,81,false,stim,true,0,580.3999999761581,0,0,0,75300,WMM1,1635731,false,false,1529,image-keyboard-response,24
true,12,0,1,0,true,q,false,true,0.0-2.0-0.48-0.436-3.436,0,0,0,81,false,stim,false,2,1036.0,0,0,2,75300,WMM1,1638310,false,false,1532,image-keyboard-response,25
true,12,0,1,0,true,q,false,true,0.0-2.0-0.48-0.437-3.437,0,0,0,81,false,stim,false,2,645.3999999761581,0,0,2,75300,WMM1,1640491,false,false,1535,image-keyboard-response,26
true,12,0,1,0,true,q,false,true,0.0-2.0-0.48-0.438-3.438,0,0,0,81,false,stim,false,2,702.1999999880791,0,0,1,75300,WMM1,1642747,false,false,1538,image-keyboard-response,27
true,12,0,1,0,true,q,false,true,0.0-2.0-0.48-0.439-3.439,0,0,0,81,false,stim,false,2,673.2000000178814,0,0,2,75300,WMM1,1644952,false,false,1541,image-keyboard-response,28
true,12,0,1,0,true,q,false,false,0.0-2.0-0.48-0.440-3.440,0,0,0,81,false,stim,false,2,938.5,0,0,1,75300,WMM1,1647417,false,true,1544,image-keyboard-response,29
true,12,0,1,0,true,q,false,true,0.0-2.0-0.49-0.441-3.441,0,0,0,81,false,stim,false,2,915.5,0,0,1,75300,WMM1,1649881,false,false,1547,image-keyboard-response,30
true,12,0,1,0,true,q,false,true,0.0-2.0-0.49-0.442-3.442,0,0,0,81,false,stim,false,2,542.1000000238419,0,0,1,75300,WMM1,1651971,false,false,1550,image-keyboard-response,31
true,12,2,1,1,false,z,true,false,0.0-2.0-0.49-0.443-3.443,0,0,0,68,false,stim,false,0,1065.699999988079,0,0,0,75300,WMM1,1654579,false,false,1553,image-keyboard-response,32
true,12,0,1,0,true,q,false,true,0.0-2.0-0.49-0.444-3.444,0,0,0,81,false,stim,false,2,875.3000000119209,0,0,2,75300,WMM1,1656987,false,false,1556,image-keyboard-response,33
true,12,0,1,0,true,q,false,true,0.0-2.0-0.49-0.445-3.445,0,0,0,81,false,stim,false,2,522.3000000119209,0,0,2,75300,WMM1,1659051,false,false,1559,image-keyboard-response,34
true,12,0,1,1,false,z,false,false,0.0-2.0-0.49-0.446-3.446,0,0,0,81,false,stim,true,0,1791.4000000059605,0,0,0,75300,WMM1,1662369,false,false,1562,image-keyboard-response,35
true,12,1,1,1,true,z,false,true,0.0-2.0-0.49-0.447-3.447,0,0,0,90,false,stim,false,0,862.2999999821186,0,0,0,75300,WMM1,1664789,false,false,1565,image-keyboard-response,36
true,12,0,1,0,true,q,false,true,0.0-2.0-0.49-0.448-3.448,0,0,0,81,false,stim,false,2,924.6999999880791,0,0,2,75300,WMM1,1667253,false,false,1568,image-keyboard-response,37
true,12,0,1,0,true,q,false,true,0.0-2.0-0.49-0.449-3.449,0,0,0,81,false,stim,false,2,771.2999999821186,0,0,1,75300,WMM1,1669567,false,false,1571,image-keyboard-response,38
true,12,0,1,0,true,q,false,true,0.0-2.0-0.50-0.450-3.450,0,0,0,81,false,stim,false,2,654.5999999940395,0,0,2,75300,WMM1,1671765,false,false,1574,image-keyboard-response,39
true,12,1,1,1,true,z,false,true,0.0-2.0-0.50-0.451-3.451,0,0,0,90,false,stim,false,0,726.8999999761581,0,0,0,75300,WMM1,1674029,false,false,1577,image-keyboard-response,40
true,12,1,1,1,true,z,false,true,0.0-2.0-0.50-0.452-3.452,0,0,0,90,false,stim,false,0,565.5,0,0,0,75300,WMM1,1676127,false,false,1580,image-keyboard-response,41
true,12,0,1,0,true,q,false,true,0.0-2.0-0.50-0.453-3.453,0,0,0,81,false,stim,false,2,685.7999999821186,0,0,1,75300,WMM1,1678351,false,false,1583,image-keyboard-response,42
true,12,1,1,0,false,q,true,false,0.0-2.0-0.50-0.454-3.454,0,0,0,90,false,stim,false,2,1471.800000011921,0,0,2,75300,WMM1,1681351,false,false,1586,image-keyboard-response,43
true,12,0,1,0,true,q,false,true,0.0-2.0-0.50-0.455-3.455,0,0,0,81,false,stim,false,2,726.3000000119209,0,0,1,75300,WMM1,1683603,false,false,1589,image-keyboard-response,44
true,12,0,1,0,true,q,false,true,0.0-2.0-0.50-0.456-3.456,0,0,0,81,false,stim,false,2,1217.699999988079,0,0,1,75300,WMM1,1686351,false,false,1592,image-keyboard-response,45
true,12,1,1,1,true,z,false,true,0.0-2.0-0.50-0.457-3.457,0,0,0,90,false,stim,false,0,1160.7999999821186,0,0,0,75300,WMM1,1689055,false,false,1595,image-keyboard-response,46
true,12,0,1,0,true,q,false,true,0.0-2.0-0.50-0.458-3.458,0,0,0,81,false,stim,false,2,546.9000000059605,0,0,2,75300,WMM1,1691125,false,false,1598,image-keyboard-response,47
true,12,1,1,1,true,z,false,true,0.0-2.0-0.51-0.459-3.459,0,0,0,90,false,stim,false,0,851.8999999761581,0,0,0,75300,WMM1,1693543,false,false,1601,image-keyboard-response,48
true,12,1,1,1,true,z,false,true,0.0-2.0-0.51-0.460-3.460,0,0,0,90,false,stim,false,0,509.5,0,0,0,75300,WMM1,1695591,false,false,1604,image-keyboard-response,49
true,12,0,1,0,true,q,false,true,0.0-2.0-0.51-0.461-3.461,0,0,0,81,false,stim,false,2,962.4000000059605,0,0,1,75300,WMM1,1698091,false,false,1607,image-keyboard-response,50
true,13,1,4,1,true,z,false,true,0.0-2.0-0.51-0.462-3.462,0,0,0,90,true,stim,false,0,1191.9000000059605,0,0,2,75300,WMM1,1700824,false,false,1610,image-keyboard-response,1
true,13,1,4,1,true,z,false,true,0.0-2.0-0.51-0.463-3.463,0,0,0,90,false,stim,false,0,576.2999999821186,0,0,2,75300,WMM1,1702939,false,false,1613,image-keyboard-response,2
true,13,0,4,2,false,d,true,false,0.0-2.0-0.51-0.464-3.464,0,0,0,81,false,stim,false,1,2267.0,0,0,0,75300,WMM1,1706729,false,false,1616,image-keyboard-response,3
true,13,0,4,1,false,z,false,false,0.0-2.0-0.51-0.465-3.465,0,0,0,81,false,stim,true,0,1308.300000011921,0,0,2,75300,WMM1,1709555,false,false,1619,image-keyboard-response,4
true,13,0,4,1,false,z,false,false,0.0-2.0-0.51-0.466-3.466,0,0,0,81,false,stim,true,0,899.7999999821186,0,0,1,75300,WMM1,1711971,false,false,1622,image-keyboard-response,5
true,13,1,4,1,true,z,false,true,0.0-2.0-0.51-0.467-3.467,0,0,0,90,false,stim,false,0,936.0999999940395,0,0,1,75300,WMM1,1714432,false,false,1625,image-keyboard-response,6
true,13,2,4,1,false,z,true,false,0.0-2.0-0.52-0.468-3.468,0,0,0,68,false,stim,false,0,1020.7000000178814,0,0,2,75300,WMM1,1716986,false,false,1628,image-keyboard-response,7
true,13,1,4,2,false,d,false,false,0.0-2.0-0.52-0.469-3.469,0,0,0,90,false,stim,true,1,939.6000000238419,0,0,0,75300,WMM1,1719451,false,false,1631,image-keyboard-response,8
true,13,1,4,1,true,z,false,true,0.0-2.0-0.52-0.470-3.470,0,0,0,90,false,stim,false,0,1096.5,0,0,1,75300,WMM1,1722073,false,false,1634,image-keyboard-response,9
true,13,1,4,1,true,z,false,true,0.0-2.0-0.52-0.471-3.471,0,0,0,90,false,stim,false,0,1324.9000000059605,0,0,2,75300,WMM1,1724937,false,false,1637,image-keyboard-response,10
true,13,1,4,1,true,z,false,true,0.0-2.0-0.52-0.472-3.472,0,0,0,90,false,stim,false,0,795.1999999880791,0,0,2,75300,WMM1,1727257,false,false,1640,image-keyboard-response,11
true,13,2,4,2,true,d,false,true,0.0-2.0-0.52-0.473-3.473,0,0,0,68,false,stim,false,1,968.5999999940395,0,0,0,75300,WMM1,1729763,false,false,1643,image-keyboard-response,12
true,13,1,4,1,true,z,false,true,0.0-2.0-0.52-0.474-3.474,0,0,0,90,false,stim,false,0,1429.699999988079,0,0,1,75300,WMM1,1732725,false,false,1646,image-keyboard-response,13
true,13,1,4,2,false,d,false,false,0.0-2.0-0.52-0.475-3.475,0,0,0,90,false,stim,true,1,762.5999999940395,0,0,0,75300,WMM1,1735023,false,false,1649,image-keyboard-response,14
true,13,1,4,1,true,z,false,true,0.0-2.0-0.52-0.476-3.476,0,0,0,90,false,stim,false,0,764.4000000059605,0,0,1,75300,WMM1,1737327,false,false,1652,image-keyboard-response,15
true,13,1,4,1,true,z,false,true,0.0-2.0-0.53-0.477-3.477,0,0,0,90,false,stim,false,0,704.0999999940395,0,0,1,75300,WMM1,1739565,false,false,1655,image-keyboard-response,16
true,13,1,4,1,true,z,false,true,0.0-2.0-0.53-0.478-3.478,0,0,0,90,false,stim,false,0,456.19999998807907,0,0,1,75300,WMM1,1741551,false,false,1658,image-keyboard-response,17
true,13,2,4,1,false,z,true,false,0.0-2.0-0.53-0.479-3.479,0,0,0,68,false,stim,false,0,737.8000000119209,0,0,2,75300,WMM1,1743815,false,false,1661,image-keyboard-response,18
true,13,0,4,2,false,d,true,false,0.0-2.0-0.53-0.480-3.480,0,0,0,81,false,stim,false,1,1108.800000011921,0,0,0,75300,WMM1,1746455,false,false,1664,image-keyboard-response,19
true,13,1,4,1,true,z,false,true,0.0-2.0-0.53-0.481-3.481,0,0,0,90,false,stim,false,0,755.9000000059605,0,0,1,75300,WMM1,1748732,false,false,1667,image-keyboard-response,20
true,13,1,4,1,true,z,false,true,0.0-2.0-0.53-0.482-3.482,0,0,0,90,false,stim,false,0,848.5,0,0,2,75300,WMM1,1751125,false,false,1670,image-keyboard-response,21
true,13,1,4,1,true,z,false,true,0.0-2.0-0.53-0.483-3.483,0,0,0,90,false,stim,false,0,561.0,0,0,2,75300,WMM1,1753223,false,false,1673,image-keyboard-response,22
true,13,2,4,2,true,d,false,true,0.0-2.0-0.53-0.484-3.484,0,0,0,68,false,stim,false,1,930.6999999880791,0,0,0,75300,WMM1,1755692,false,false,1676,image-keyboard-response,23
true,13,1,4,2,false,d,false,false,0.0-2.0-0.53-0.485-3.485,0,0,0,90,false,stim,true,1,1089.300000011921,0,0,0,75300,WMM1,1758317,false,false,1679,image-keyboard-response,24
true,13,2,4,2,true,d,false,true,0.0-2.0-0.54-0.486-3.486,0,0,0,68,false,stim,false,1,536.6999999880791,0,0,0,75300,WMM1,1760399,false,false,1682,image-keyboard-response,25
true,13,1,4,1,true,z,false,true,0.0-2.0-0.54-0.487-3.487,0,0,0,90,false,stim,false,0,1278.5,0,0,2,75300,WMM1,1763223,false,false,1685,image-keyboard-response,26
true,13,1,4,1,true,z,false,true,0.0-2.0-0.54-0.488-3.488,0,0,0,90,false,stim,false,0,585.0,0,0,1,75300,WMM1,1765349,false,false,1688,image-keyboard-response,27
true,13,1,4,1,true,z,false,false,0.0-2.0-0.54-0.489-3.489,0,0,0,90,false,stim,false,0,833.0999999940395,0,0,2,75300,WMM1,1767744,false,true,1691,image-keyboard-response,28
true,13,2,4,2,true,d,false,true,0.0-2.0-0.54-0.490-3.490,0,0,0,68,false,stim,false,1,1198.8999999761581,0,0,0,75300,WMM1,1770478,false,false,1694,image-keyboard-response,29
true,13,1,4,1,true,z,false,true,0.0-2.0-0.54-0.491-3.491,0,0,0,90,false,stim,false,0,628.0999999940395,0,1,1,75300,WMM1,1772643,false,false,1697,image-keyboard-response,30
true,13,1,4,1,true,z,false,true,0.0-2.0-0.54-0.492-3.492,0,0,0,90,false,stim,false,0,656.0999999940395,0,1,1,75300,WMM1,1774832,false,false,1700,image-keyboard-response,31
true,13,0,4,2,false,d,true,false,0.0-2.0-0.54-0.493-3.493,0,0,0,81,false,stim,false,1,752.5,0,1,0,75300,WMM1,1777147,false,false,1703,image-keyboard-response,32
true,13,2,4,1,false,z,true,false,0.0-2.0-0.54-0.494-3.494,0,0,0,68,false,stim,false,0,1274.7000000178814,0,1,2,75300,WMM1,1779955,false,false,1706,image-keyboard-response,33
true,13,1,4,1,true,z,false,true,0.0-2.0-0.55-0.495-3.495,0,0,0,90,false,stim,false,0,691.0,0,1,1,75300,WMM1,1782169,false,false,1709,image-keyboard-response,34
true,13,1,4,1,true,z,false,true,0.0-2.0-0.55-0.496-3.496,0,0,0,90,false,stim,false,0,1028.2000000178814,0,1,2,75300,WMM1,1784714,false,false,1712,image-keyboard-response,35
true,13,1,4,1,true,z,false,true,0.0-2.0-0.55-0.497-3.497,0,0,0,90,false,stim,false,0,821.9000000059605,0,1,1,75300,WMM1,1787067,false,false,1715,image-keyboard-response,36
true,13,1,4,1,true,z,false,true,0.0-2.0-0.55-0.498-3.498,0,0,0,90,false,stim,false,0,521.3000000119209,0,1,2,75300,WMM1,1789131,false,false,1718,image-keyboard-response,37
true,13,2,4,2,true,d,false,true,0.0-2.0-0.55-0.499-3.499,0,0,0,68,false,stim,false,1,1164.300000011921,0,1,0,75300,WMM1,1791827,false,false,1721,image-keyboard-response,38
true,13,2,4,2,true,d,false,true,0.0-2.0-0.55-0.500-3.500,0,0,0,68,false,stim,false,1,585.9000000059605,0,1,0,75300,WMM1,1793947,false,false,1724,image-keyboard-response,39
true,14,0,0,2,false,d,true,true,0.0-2.0-0.55-0.501-3.501,1,1,1,81,true,stim,false,2,2059.199999988079,0,1,0,75300,WMM1,1919368,false,true,1847,image-keyboard-response,1
true,14,1,0,1,true,z,false,true,0.0-2.0-0.55-0.502-3.502,1,1,1,90,false,stim,false,1,1503.0,0,1,2,75300,WMM1,1922401,false,false,1850,image-keyboard-response,2
true,14,2,0,1,false,z,true,false,0.0-2.0-0.55-0.503-3.503,1,1,1,68,false,stim,false,1,548.1999999880791,0,1,1,75300,WMM1,1924481,false,false,1853,image-keyboard-response,3
true,14,0,0,2,false,d,true,false,0.0-2.0-0.56-0.504-3.504,1,1,1,81,false,stim,false,2,659.5,0,1,0,75300,WMM1,1926672,false,false,1856,image-keyboard-response,4
true,14,1,0,1,true,z,false,true,0.0-2.0-0.56-0.505-3.505,1,1,1,90,false,stim,false,1,621.0999999940395,0,1,1,75300,WMM1,1928817,false,false,1859,image-keyboard-response,5
true,14,0,0,2,false,d,true,false,0.0-2.0-0.56-0.506-3.506,1,1,1,81,false,stim,false,2,501.7000000178814,0,1,0,75300,WMM1,1930864,false,false,1862,image-keyboard-response,6
true,14,1,0,2,false,d,true,false,0.0-2.0-0.56-0.507-3.507,1,1,1,90,false,stim,false,2,682.3000000119209,0,1,0,75300,WMM1,1933081,false,false,1865,image-keyboard-response,7
true,14,1,0,1,true,z,false,true,0.0-2.0-0.56-0.508-3.508,1,1,1,90,false,stim,false,1,952.5,0,1,1,75300,WMM1,1935561,false,false,1868,image-keyboard-response,8
true,14,1,0,1,true,z,false,true,0.0-2.0-0.56-0.509-3.509,1,1,1,90,false,stim,false,1,1120.9000000059605,0,1,2,75300,WMM1,1938230,false,false,1871,image-keyboard-response,9
true,14,1,0,1,true,z,false,true,0.0-2.0-0.56-0.510-3.510,1,1,1,90,false,stim,false,1,561.2000000178814,0,1,2,75300,WMM1,1940318,false,false,1874,image-keyboard-response,10
true,14,1,0,1,true,z,false,true,0.0-2.0-0.56-0.511-3.511,1,1,1,90,false,stim,false,1,639.0,0,1,1,75300,WMM1,1942479,false,false,1877,image-keyboard-response,11
true,14,1,0,1,true,z,false,true,0.0-2.0-0.56-0.512-3.512,1,1,1,90,false,stim,false,1,396.40000000596046,0,1,2,75300,WMM1,1944407,false,false,1880,image-keyboard-response,12
true,14,1,0,1,true,z,false,true,0.0-2.0-0.57-0.513-3.513,1,1,1,90,false,stim,false,1,753.7000000178814,0,1,2,75300,WMM1,1946696,false,false,1883,image-keyboard-response,13
true,14,2,0,2,true,d,false,true,0.0-2.0-0.57-0.514-3.514,1,1,1,68,false,stim,false,2,899.9000000059605,0,1,0,75300,WMM1,1949128,false,false,1886,image-keyboard-response,14
true,14,1,0,1,true,z,false,true,0.0-2.0-0.57-0.515-3.515,1,1,1,90,false,stim,false,1,734.1999999880791,0,1,1,75300,WMM1,1951395,false,false,1889,image-keyboard-response,15
true,14,1,0,1,true,z,false,true,0.0-2.0-0.57-0.516-3.516,1,1,1,90,false,stim,false,1,594.3999999761581,0,1,1,75300,WMM1,1953523,false,false,1892,image-keyboard-response,16
true,14,1,0,1,true,z,false,false,0.0-2.0-0.57-0.517-3.517,1,1,1,90,false,stim,false,1,662.4000000059605,0,1,1,75300,WMM1,1955739,false,true,1895,image-keyboard-response,17
true,14,2,0,1,false,z,true,false,0.0-2.0-0.57-0.518-3.518,1,1,1,68,false,stim,false,1,523.5,0,1,2,75300,WMM1,1957795,false,false,1898,image-keyboard-response,18
true,14,2,0,2,true,d,false,true,0.0-2.0-0.57-0.519-3.519,1,1,1,68,false,stim,false,2,728.1999999880791,0,1,0,75300,WMM1,1960083,false,false,1901,image-keyboard-response,19
true,14,1,0,1,true,z,false,true,0.0-2.0-0.57-0.520-3.520,1,1,1,90,false,stim,false,1,743.9000000059605,0,1,2,75300,WMM1,1962353,false,false,1904,image-keyboard-response,20
true,14,2,0,2,true,d,false,true,0.0-2.0-0.57-0.521-3.521,1,1,1,68,false,stim,false,2,871.6000000238419,0,1,0,75300,WMM1,1964763,false,false,1907,image-keyboard-response,21
true,14,2,0,2,true,d,false,true,0.0-2.0-0.58-0.522-3.522,1,1,1,68,false,stim,false,2,581.2000000178814,0,1,0,75300,WMM1,1966891,false,false,1910,image-keyboard-response,22
true,14,1,0,1,true,z,false,true,0.0-2.0-0.58-0.523-3.523,1,1,1,90,false,stim,false,1,1166.300000011921,0,1,2,75300,WMM1,1969602,false,false,1913,image-keyboard-response,23
true,14,0,0,1,false,z,true,false,0.0-2.0-0.58-0.524-3.524,1,1,1,81,false,stim,false,1,625.8000000119209,0,0,1,75300,WMM1,1971768,false,false,1916,image-keyboard-response,24
true,14,2,0,2,true,d,false,true,0.0-2.0-0.58-0.525-3.525,1,1,1,68,false,stim,false,2,742.7000000178814,0,0,0,75300,WMM1,1974051,false,false,1919,image-keyboard-response,25
true,14,0,0,1,false,z,true,false,0.0-2.0-0.58-0.526-3.526,1,1,1,81,false,stim,false,1,1341.2000000178814,0,0,2,75300,WMM1,1976948,false,false,1922,image-keyboard-response,26
true,14,0,0,1,false,z,true,false,0.0-2.0-0.58-0.527-3.527,1,1,1,81,false,stim,false,1,899.3000000119209,0,0,1,75300,WMM1,1979384,false,false,1925,image-keyboard-response,27
true,14,2,0,2,true,d,false,true,0.0-2.0-0.58-0.528-3.528,1,1,1,68,false,stim,false,2,1056.4000000059605,0,0,0,75300,WMM1,1981981,false,false,1928,image-keyboard-response,28
true,14,1,0,1,true,z,false,true,0.0-2.0-0.58-0.529-3.529,1,1,1,90,false,stim,false,1,796.0,0,0,1,75300,WMM1,1984304,false,false,1931,image-keyboard-response,29
true,14,0,0,1,false,z,true,false,0.0-2.0-0.58-0.530-3.530,1,1,1,81,false,stim,false,1,1075.800000011921,0,0,2,75300,WMM1,1986917,false,false,1934,image-keyboard-response,30
true,14,1,0,1,true,z,false,false,0.0-2.0-0.59-0.531-3.531,1,1,1,90,false,stim,false,1,936.3000000119209,0,0,1,75300,WMM1,1989383,false,true,1937,image-keyboard-response,31
true,14,2,0,2,true,d,false,true,0.0-2.0-0.59-0.532-3.532,1,1,1,68,false,stim,false,2,706.3000000119209,0,0,0,75300,WMM1,1991615,false,false,1940,image-keyboard-response,32
true,14,1,0,1,true,z,false,true,0.0-2.0-0.59-0.533-3.533,1,1,1,90,false,stim,false,1,1058.5,0,0,1,75300,WMM1,1994212,false,false,1943,image-keyboard-response,33
true,15,2,2,1,false,z,false,false,0.0-2.0-0.59-0.534-3.534,0,0,0,68,true,stim,true,2,1313.300000011921,0,0,0,75300,WMM1,1997055,false,false,1946,image-keyboard-response,1
true,15,1,2,2,false,d,false,false,0.0-2.0-0.59-0.535-3.535,0,0,0,90,false,stim,true,1,926.5,0,0,2,75300,WMM1,1999535,false,false,1949,image-keyboard-response,2
true,15,2,2,2,true,d,false,true,0.0-2.0-0.59-0.536-3.536,0,0,0,68,false,stim,false,1,975.1000000238419,0,0,2,75300,WMM1,2002030,false,false,1952,image-keyboard-response,3
true,15,2,2,2,true,d,false,true,0.0-2.0-0.59-0.537-3.537,0,0,0,68,false,stim,false,1,576.6999999880791,0,0,2,75300,WMM1,2004134,false,false,1955,image-keyboard-response,4
true,15,1,2,1,true,z,false,true,0.0-2.0-0.59-0.538-3.538,0,0,0,90,false,stim,false,2,1437.300000011921,0,0,0,75300,WMM1,2007094,false,false,1958,image-keyboard-response,5
true,15,2,2,0,false,q,true,false,0.0-2.0-0.59-0.539-3.539,0,0,0,68,false,stim,false,1,1608.5,0,0,1,75300,WMM1,2010235,false,false,1961,image-keyboard-response,6
true,15,1,2,0,false,q,false,false,0.0-2.0-0.60-0.540-3.540,0,0,0,90,false,stim,true,1,583.7000000178814,0,0,1,75300,WMM1,2012366,false,false,1964,image-keyboard-response,7
true,15,0,2,0,true,q,false,true,0.0-2.0-0.60-0.541-3.541,0,0,0,81,false,stim,false,1,460.69999998807907,0,0,1,75300,WMM1,2014358,false,false,1967,image-keyboard-response,8
true,15,2,2,2,true,d,false,true,0.0-2.0-0.60-0.542-3.542,0,0,0,68,false,stim,false,1,1206.4000000059605,0,0,2,75300,WMM1,2017099,false,false,1970,image-keyboard-response,9
true,15,1,2,1,true,z,false,true,0.0-2.0-0.60-0.543-3.543,0,0,0,90,false,stim,false,2,609.3000000119209,0,0,0,75300,WMM1,2019231,false,false,1973,image-keyboard-response,10
true,15,0,2,0,true,q,false,true,0.0-2.0-0.60-0.544-3.544,0,0,0,81,false,stim,false,1,429.69999998807907,0,0,1,75300,WMM1,2021186,false,false,1976,image-keyboard-response,11
true,15,2,2,2,true,d,false,true,0.0-2.0-0.60-0.545-3.545,0,0,0,68,false,stim,false,1,940.6999999880791,0,0,2,75300,WMM1,2023650,false,false,1979,image-keyboard-response,12
true,15,0,2,1,false,z,true,false,0.0-2.0-0.60-0.546-3.546,0,0,0,81,false,stim,false,2,705.1000000238419,0,0,0,75300,WMM1,2025880,false,false,1982,image-keyboard-response,13
true,15,2,2,2,true,d,false,false,0.0-2.0-0.60-0.547-3.547,0,0,0,68,false,stim,false,1,610.6999999880791,0,0,2,75300,WMM1,2028018,false,true,1985,image-keyboard-response,14
true,15,1,2,1,true,z,false,true,0.0-2.0-0.60-0.548-3.548,0,0,0,90,false,stim,false,2,689.1999999880791,0,0,0,75300,WMM1,2030246,false,false,1988,image-keyboard-response,15
true,15,2,2,2,true,d,false,true,0.0-2.0-0.61-0.549-3.549,0,0,0,68,false,stim,false,1,572.5,0,0,2,75300,WMM1,2032362,false,false,1991,image-keyboard-response,16
true,15,1,2,1,true,z,false,true,0.0-2.0-0.61-0.550-3.550,0,0,0,90,false,stim,false,2,1184.7999999821186,0,0,0,75300,WMM1,2035087,false,false,1994,image-keyboard-response,17
true,15,2,2,2,true,d,false,true,0.0-2.0-0.61-0.551-3.551,0,0,0,68,false,stim,false,1,744.5,0,0,2,75300,WMM1,2037370,false,false,1997,image-keyboard-response,18
true,15,0,2,0,true,q,false,true,0.0-2.0-0.61-0.552-3.552,0,0,0,81,false,stim,false,1,898.1999999880791,0,0,1,75300,WMM1,2039808,false,false,2000,image-keyboard-response,19
true,15,0,2,0,true,q,false,false,0.0-2.0-0.61-0.553-3.553,0,0,0,81,false,stim,false,1,633.5,0,0,1,75300,WMM1,2041992,false,true,2003,image-keyboard-response,20
true,15,0,2,0,true,q,false,true,0.0-2.0-0.61-0.554-3.554,0,0,0,81,false,stim,false,1,500.90000000596046,0,0,1,75300,WMM1,2044043,false,false,2006,image-keyboard-response,21
true,15,1,2,1,true,z,false,true,0.0-2.0-0.61-0.555-3.555,0,0,0,90,false,stim,false,2,773.6999999880791,0,0,0,75300,WMM1,2046344,false,false,2009,image-keyboard-response,22
true,15,2,2,2,true,d,false,true,0.0-2.0-0.61-0.556-3.556,0,0,0,68,false,stim,false,1,800.6000000238419,0,0,2,75300,WMM1,2048674,false,false,2012,image-keyboard-response,23
true,15,1,2,1,true,z,false,true,0.0-2.0-0.61-0.557-3.557,0,0,0,90,false,stim,false,2,614.6999999880791,0,0,0,75300,WMM1,2050836,false,false,2015,image-keyboard-response,24
true,15,1,2,1,true,z,false,true,0.0-2.0-0.62-0.558-3.558,0,0,0,90,false,stim,false,2,493.0,0,0,0,75300,WMM1,2052866,false,false,2018,image-keyboard-response,25
true,15,2,2,2,true,d,false,true,0.0-2.0-0.62-0.559-3.559,0,0,0,68,false,stim,false,1,644.0999999940395,0,0,2,75300,WMM1,2055034,false,false,2021,image-keyboard-response,26
true,15,2,2,2,true,d,false,true,0.0-2.0-0.62-0.560-3.560,0,0,0,68,false,stim,false,1,495.0,0,0,2,75300,WMM1,2057070,false,false,2024,image-keyboard-response,27
true,15,1,2,0,false,q,false,true,0.0-2.0-0.62-0.561-3.561,0,0,0,90,false,stim,true,1,814.2999999821186,0,0,1,75300,WMM1,2059405,false,true,2027,image-keyboard-response,28
true,15,1,2,0,false,q,false,false,0.0-2.0-0.62-0.562-3.562,0,0,0,90,false,stim,true,1,548.0,0,0,1,75300,WMM1,2061501,false,false,2030,image-keyboard-response,29
true,15,2,2,2,true,d,false,true,0.0-2.0-0.62-0.563-3.563,0,0,0,68,false,stim,false,1,1270.5,0,0,2,75300,WMM1,2064293,false,false,2033,image-keyboard-response,30
true,16,0,1,2,false,d,false,false,0.0-2.0-0.62-0.564-3.564,0,0,0,81,true,stim,true,0,565.0999999940395,0,0,1,75300,WMM1,2066387,false,false,2036,image-keyboard-response,1
true,16,1,1,2,false,d,false,false,0.0-2.0-0.62-0.565-3.565,0,0,0,90,false,stim,true,1,899.5,0,0,0,75300,WMM1,2068821,false,false,2039,image-keyboard-response,2
true,16,0,1,2,false,d,true,false,0.0-2.0-0.62-0.566-3.566,0,0,0,81,false,stim,false,1,707.0999999940395,0,0,0,75300,WMM1,2071061,false,false,2042,image-keyboard-response,3
true,16,2,1,2,true,d,false,true,0.0-2.0-0.63-0.567-3.567,0,0,0,68,false,stim,false,0,958.8000000119209,0,0,1,75300,WMM1,2073549,false,false,2045,image-keyboard-response,4
true,16,2,1,0,false,q,false,false,0.0-2.0-0.63-0.568-3.568,0,0,0,68,false,stim,true,2,634.5,0,0,2,75300,WMM1,2075707,false,false,2048,image-keyboard-response,5
true,16,2,1,2,true,d,false,true,0.0-2.0-0.63-0.569-3.569,0,0,0,68,false,stim,false,0,781.0999999940395,0,0,1,75300,WMM1,2078019,false,false,2051,image-keyboard-response,6
true,16,2,1,0,false,q,false,false,0.0-2.0-0.63-0.570-3.570,0,0,0,68,false,stim,true,2,1288.0999999940395,0,0,2,75300,WMM1,2080843,false,false,2054,image-keyboard-response,7
true,16,2,1,2,true,d,false,false,0.0-2.0-0.63-0.571-3.571,0,0,0,68,false,stim,false,0,946.0999999940395,0,0,1,75300,WMM1,2083315,false,true,2057,image-keyboard-response,8
true,16,1,1,0,false,q,true,false,0.0-2.0-0.63-0.572-3.572,0,0,0,90,false,stim,false,2,849.0999999940395,0,0,2,75300,WMM1,2085693,false,false,2060,image-keyboard-response,9
true,16,2,1,2,true,d,false,true,0.0-2.0-0.63-0.573-3.573,0,0,0,68,false,stim,false,1,1285.1000000238419,0,0,0,75300,WMM1,2088511,false,false,2063,image-keyboard-response,10
true,16,2,1,2,true,d,false,true,0.0-2.0-0.63-0.574-3.574,0,0,0,68,false,stim,false,1,718.1999999880791,0,0,0,75300,WMM1,2090757,false,false,2066,image-keyboard-response,11
true,16,2,1,2,true,d,false,true,0.0-2.0-0.63-0.575-3.575,0,0,0,68,false,stim,false,1,422.2000000178814,0,0,0,75300,WMM1,2092717,false,false,2069,image-keyboard-response,12
true,16,2,1,2,true,d,false,true,0.0-2.0-0.64-0.576-3.576,0,0,0,68,false,stim,false,0,1176.199999988079,0,0,1,75300,WMM1,2095430,false,false,2072,image-keyboard-response,13
true,16,2,1,2,true,d,false,true,0.0-2.0-0.64-0.577-3.577,0,0,0,68,false,stim,false,1,650.9000000059605,0,0,0,75300,WMM1,2097609,false,false,2075,image-keyboard-response,14
true,16,2,1,2,true,d,false,true,0.0-2.0-0.64-0.578-3.578,0,0,0,68,false,stim,false,0,1116.199999988079,0,0,1,75300,WMM1,2100254,false,false,2078,image-keyboard-response,15
true,16,2,1,0,false,q,false,false,0.0-2.0-0.64-0.579-3.579,0,0,0,68,false,stim,true,2,612.1999999880791,0,0,2,75300,WMM1,2102401,false,false,2081,image-keyboard-response,16
true,16,1,1,0,false,q,true,false,0.0-2.0-0.64-0.580-3.580,0,0,0,90,false,stim,false,2,932.1999999880791,0,0,2,75300,WMM1,2104871,false,false,2084,image-keyboard-response,17
true,16,2,1,2,true,d,false,true,0.0-2.0-0.64-0.581-3.581,0,0,0,68,false,stim,false,0,683.5999999940395,0,0,1,75300,WMM1,2107089,false,false,2087,image-keyboard-response,18
true,16,0,1,0,true,q,false,true,0.0-2.0-0.64-0.582-3.582,0,0,0,81,false,stim,false,2,1042.800000011921,0,0,2,75300,WMM1,2109665,false,false,2090,image-keyboard-response,19
true,16,2,1,2,true,d,false,true,0.0-2.0-0.64-0.583-3.583,0,0,0,68,false,stim,false,1,785.2000000178814,0,0,0,75300,WMM1,2111975,false,false,2093,image-keyboard-response,20
true,16,2,1,2,true,d,false,true,0.0-2.0-0.64-0.584-3.584,0,0,0,68,false,stim,false,1,582.1999999880791,0,0,0,75300,WMM1,2114105,false,false,2096,image-keyboard-response,21
true,16,2,1,2,true,d,false,true,0.0-2.0-0.65-0.585-3.585,0,0,0,68,false,stim,false,1,475.09999999403954,0,0,0,75300,WMM1,2116129,false,false,2099,image-keyboard-response,22
true,16,0,1,0,true,q,false,true,0.0-2.0-0.65-0.586-3.586,0,0,0,81,false,stim,false,2,647.5999999940395,0,0,2,75300,WMM1,2118340,false,false,2102,image-keyboard-response,23
true,16,2,1,0,false,q,false,false,0.0-2.0-0.65-0.587-3.587,0,0,0,68,false,stim,true,2,1206.4000000059605,0,0,2,75300,WMM1,2121100,false,false,2105,image-keyboard-response,24
true,16,2,1,2,true,d,false,true,0.0-2.0-0.65-0.588-3.588,0,0,0,68,false,stim,false,0,969.5999999940395,0,0,1,75300,WMM1,2123598,false,false,2108,image-keyboard-response,25
true,16,2,1,2,true,d,false,false,0.0-2.0-0.65-0.589-3.589,0,0,0,68,false,stim,false,0,418.80000001192093,0,0,1,75300,WMM1,2125554,false,true,2111,image-keyboard-response,26
true,16,2,1,2,true,d,false,true,0.0-2.0-0.65-0.590-3.590,0,0,0,68,false,stim,false,1,1251.5,0,0,0,75300,WMM1,2128328,false,false,2114,image-keyboard-response,27
true,16,2,1,2,true,d,false,true,0.0-2.0-0.65-0.591-3.591,0,0,0,68,false,stim,false,0,1075.0,0,0,1,75300,WMM1,2130935,false,false,2117,image-keyboard-response,28
true,16,2,1,2,true,d,false,true,0.0-2.0-0.65-0.592-3.592,0,0,0,68,false,stim,false,1,606.3999999761581,0,0,0,75300,WMM1,2133066,false,false,2120,image-keyboard-response,29
