answered,blockNum,choice,condition,corResp,correct,correct_response,explo,fb,internal_node_id,isStable_1,isStable_2,isStable_3,key_press,newBlock,part,persev,persevResp,rt,sessNum,stableAS,stimulus,subject,task,time_elapsed,training,trap,trial_index,trial_type,trialsInBlock
true,1,0,0,1,false,z,true,false,0.0-2.0-0.0-0.0-3.0,0,0,0,81,true,stim,false,-1,627.4100000009639,0,0,1,77921,WMM2,162673,false,false,184,image-keyboard-response,1
true,1,1,0,1,true,z,false,true,0.0-2.0-0.0-0.1-3.1,0,0,0,90,false,stim,false,-1,402.4700000009034,0,0,2,77921,WMM2,164591,false,false,187,image-keyboard-response,2
true,1,1,0,2,false,d,true,false,0.0-2.0-0.0-0.2-3.2,0,0,0,90,false,stim,false,-1,326.4400000007299,0,0,0,77921,WMM2,166437,false,false,190,image-keyboard-response,3
true,1,0,0,1,false,z,true,false,0.0-2.0-0.0-0.3-3.3,0,0,0,81,false,stim,false,-1,72.51000000178465,0,0,1,77921,WMM2,168030,false,false,193,image-keyboard-response,4
true,1,0,0,1,false,z,true,false,0.0-2.0-0.0-0.4-3.4,0,0,0,81,false,stim,false,-1,207.42500000051223,0,0,2,77921,WMM2,169767,false,false,196,image-keyboard-response,5
true,1,1,0,1,true,z,false,false,0.0-2.0-0.0-0.5-3.5,0,0,0,90,false,stim,false,-1,202.3300000000745,0,0,1,77921,WMM2,171495,false,true,199,image-keyboard-response,6
true,1,1,0,1,true,z,false,true,0.0-2.0-0.0-0.6-3.6,0,0,0,90,false,stim,false,-1,286.1850000008417,0,0,2,77921,WMM2,173302,false,false,202,image-keyboard-response,7
true,1,0,0,2,false,d,true,false,0.0-2.0-0.0-0.7-3.7,0,0,0,81,false,stim,false,-1,273.3249999982945,0,0,0,77921,WMM2,175099,false,false,205,image-keyboard-response,8
true,1,1,0,2,false,d,true,false,0.0-2.0-0.0-0.8-3.8,0,0,0,90,false,stim,false,-1,326.5900000005786,0,0,0,77921,WMM2,176940,false,false,208,image-keyboard-response,9
true,1,1,0,1,true,z,false,true,0.0-2.0-0.1-0.9-3.9,0,0,0,90,false,stim,false,-1,182.489999999234,0,0,2,77921,WMM2,178643,false,false,211,image-keyboard-response,10
true,1,0,0,2,false,d,true,false,0.0-2.0-0.1-0.10-3.10,0,0,0,81,false,stim,false,-1,89.45500000118045,0,0,0,77921,WMM2,180257,false,false,214,image-keyboard-response,11
true,1,1,0,2,false,d,true,true,0.0-2.0-0.1-0.11-3.11,0,0,0,90,false,stim,false,-1,400.02499999900465,0,0,0,77921,WMM2,182175,false,true,217,image-keyboard-response,12
true,1,1,0,1,true,z,false,true,0.0-2.0-0.1-0.12-3.12,0,0,0,90,false,stim,false,-1,375.89500000103726,0,0,1,77921,WMM2,184078,false,false,220,image-keyboard-response,13
true,1,1,0,1,true,z,false,true,0.0-2.0-0.1-0.13-3.13,0,0,0,90,false,stim,false,-1,323.949999998149,0,0,1,77921,WMM2,185916,false,false,223,image-keyboard-response,14
true,1,1,0,1,true,z,false,true,0.0-2.0-0.1-0.14-3.14,0,0,0,90,false,stim,false,-1,327.8549999995448,0,0,2,77921,WMM2,187760,false,false,226,image-keyboard-response,15
true,1,1,0,1,true,z,false,true,0.0-2.0-0.1-0.15-3.15,0,0,0,90,false,stim,false,-1,324.1650000018126,0,0,2,77921,WMM2,189609,false,false,229,image-keyboard-response,16
true,1,1,0,2,false,d,true,false,0.0-2.0-0.1-0.16-3.16,0,0,0,90,false,stim,false,-1,318.50499999927706,0,0,0,77921,WMM2,191445,false,false,232,image-keyboard-response,17
true,1,0,0,1,false,z,true,false,0.0-2.0-0.1-0.17-3.17,0,0,0,81,false,stim,false,-1,375.3099999994447,0,0,1,77921,WMM2,193341,false,false,235,image-keyboard-response,18
true,1,0,0,2,false,d,true,false,0.0-2.0-0.2-0.18-3.18,0,0,0,81,false,stim,false,-1,273.78500000122585,0,0,0,77921,WMM2,195136,false,false,238,image-keyboard-response,19
true,1,1,0,1,true,z,false,false,0.0-2.0-0.2-0.19-3.19,0,0,0,90,false,stim,false,-1,272.45000000039,0,0,2,77921,WMM2,196923,false,true,241,image-keyboard-response,20
true,1,1,0,1,true,z,false,true,0.0-2.0-0.2-0.20-3.20,0,0,0,90,false,stim,false,-1,78.1200000019453,0,0,1,77921,WMM2,198527,false,false,244,image-keyboard-response,21
true,1,1,0,1,true,z,false,true,0.0-2.0-0.2-0.21-3.21,0,0,0,90,false,stim,false,-1,147.26499999960652,0,0,2,77921,WMM2,200209,false,false,247,image-keyboard-response,22
true,1,1,0,1,true,z,false,true,0.0-2.0-0.2-0.22-3.22,0,0,0,90,false,stim,false,-1,18.720000000030268,0,0,1,77921,WMM2,201759,false,false,250,image-keyboard-response,23
true,1,1,0,2,false,d,true,false,0.0-2.0-0.2-0.23-3.23,0,0,0,90,false,stim,false,-1,27.49500000209082,0,0,0,77921,WMM2,203316,false,false,253,image-keyboard-response,24
true,1,0,0,1,false,z,true,false,0.0-2.0-0.2-0.24-3.24,0,0,0,81,false,stim,false,-1,124.22499999956926,0,0,1,77921,WMM2,204966,false,false,256,image-keyboard-response,25
true,1,2,0,2,true,d,false,true,0.0-2.0-0.2-0.25-3.25,0,0,0,68,false,stim,false,-1,302.88000000291504,0,0,0,77921,WMM2,206801,false,false,259,image-keyboard-response,26
true,1,1,0,1,true,z,false,true,0.0-2.0-0.2-0.26-3.26,0,0,0,90,false,stim,false,-1,108.40499999903841,0,0,2,77921,WMM2,208440,false,false,262,image-keyboard-response,27
true,1,1,0,1,true,z,false,true,0.0-2.0-0.3-0.27-3.27,0,0,0,90,false,stim,false,-1,221.5250000008382,0,0,2,77921,WMM2,210178,false,false,265,image-keyboard-response,28
true,1,1,0,1,true,z,false,true,0.0-2.0-0.3-0.28-3.28,0,0,0,90,false,stim,false,-1,75.19999999931315,0,0,2,77921,WMM2,211779,false,false,268,image-keyboard-response,29
true,1,1,0,2,false,d,true,false,0.0-2.0-0.3-0.29-3.29,0,0,0,90,false,stim,false,-1,144.37499999985448,0,0,0,77921,WMM2,213434,false,false,271,image-keyboard-response,30
true,1,2,0,1,false,z,true,false,0.0-2.0-0.3-0.30-3.30,0,0,0,68,false,stim,false,-1,345.92499999780557,0,0,1,77921,WMM2,215311,false,false,274,image-keyboard-response,31
true,1,0,0,2,false,d,true,false,0.0-2.0-0.3-0.31-3.31,0,0,0,81,false,stim,false,-1,286.2650000024587,0,0,0,77921,WMM2,217120,false,false,277,image-keyboard-response,32
true,1,1,0,2,false,d,true,false,0.0-2.0-0.3-0.32-3.32,0,0,0,90,false,stim,false,-1,541.8500000014319,0,0,0,77921,WMM2,219171,false,false,280,image-keyboard-response,33
true,1,1,0,1,true,z,false,true,0.0-2.0-0.3-0.33-3.33,0,0,0,90,false,stim,false,-1,290.9799999979441,0,0,1,77921,WMM2,220978,false,false,283,image-keyboard-response,34
true,1,1,0,1,true,z,false,false,0.0-2.0-0.3-0.34-3.34,0,0,0,90,false,stim,false,-1,318.3050000006915,0,0,1,77921,WMM2,222822,false,true,286,image-keyboard-response,35
true,1,1,0,1,true,z,false,true,0.0-2.0-0.3-0.35-3.35,0,0,0,90,false,stim,false,-1,61.37499999749707,0,0,2,77921,WMM2,224408,false,false,289,image-keyboard-response,36
true,1,1,0,1,true,z,false,true,0.0-2.0-0.4-0.36-3.36,0,0,0,90,false,stim,false,-1,171.72999999820604,0,0,2,77921,WMM2,226109,false,false,292,image-keyboard-response,37
true,1,1,0,1,true,z,false,true,0.0-2.0-0.4-0.37-3.37,0,0,0,90,false,stim,false,-1,220.4600000004575,0,0,2,77921,WMM2,227847,false,false,295,image-keyboard-response,38
true,1,0,0,1,false,z,true,false,0.0-2.0-0.4-0.38-3.38,0,0,0,81,false,stim,false,-1,164.41000000122585,0,0,1,77921,WMM2,229536,false,false,298,image-keyboard-response,39
true,1,2,0,2,true,d,false,true,0.0-2.0-0.4-0.39-3.39,0,0,0,68,false,stim,false,-1,268.98500000243075,0,0,0,77921,WMM2,231336,false,false,301,image-keyboard-response,40
true,1,1,0,1,true,z,false,true,0.0-2.0-0.4-0.40-3.40,0,0,0,90,false,stim,false,-1,182.84499999936088,0,0,2,77921,WMM2,233050,false,false,304,image-keyboard-response,41
true,1,0,0,1,false,z,true,false,0.0-2.0-0.4-0.41-3.41,0,0,0,81,false,stim,false,-1,46.33999999714433,0,0,1,77921,WMM2,234623,false,false,307,image-keyboard-response,42
true,1,2,0,2,true,d,false,true,0.0-2.0-0.4-0.42-3.42,0,0,0,68,false,stim,false,-1,257.354999997915,0,0,0,77921,WMM2,236398,false,false,310,image-keyboard-response,43
true,1,1,0,1,true,z,false,true,0.0-2.0-0.4-0.43-3.43,0,0,0,90,false,stim,false,-1,467.40500000305474,0,0,1,77921,WMM2,238397,false,false,313,image-keyboard-response,44
true,1,1,0,2,false,d,true,false,0.0-2.0-0.4-0.44-3.44,0,0,0,90,false,stim,false,-1,245.5549999976938,0,0,0,77921,WMM2,240186,false,false,316,image-keyboard-response,45
true,1,0,0,1,false,z,true,false,0.0-2.0-0.5-0.45-3.45,0,0,0,81,false,stim,false,-1,370.35499999910826,0,0,2,77921,WMM2,242093,false,false,319,image-keyboard-response,46
true,1,2,0,2,true,d,false,true,0.0-2.0-0.5-0.46-3.46,0,0,0,68,false,stim,false,-1,393.28999999997905,0,0,0,77921,WMM2,243999,false,false,322,image-keyboard-response,47
true,1,1,0,2,false,d,true,false,0.0-2.0-0.5-0.47-3.47,0,0,0,90,false,stim,false,-1,152.12500000052387,0,0,0,77921,WMM2,245683,false,false,325,image-keyboard-response,48
true,1,0,0,1,false,z,true,false,0.0-2.0-0.5-0.48-3.48,0,0,0,81,false,stim,false,-1,372.3549999995157,0,0,1,77921,WMM2,247586,false,false,328,image-keyboard-response,49
true,1,2,0,1,false,z,true,false,0.0-2.0-0.5-0.49-3.49,0,0,0,68,false,stim,false,-1,328.5250000008091,0,0,2,77921,WMM2,249435,false,false,331,image-keyboard-response,50
true,1,1,0,1,true,z,false,true,0.0-2.0-0.5-0.50-3.50,0,0,0,90,false,stim,false,-1,336.090000000695,0,1,1,77921,WMM2,251302,false,false,334,image-keyboard-response,51
true,1,1,0,2,false,d,true,true,0.0-2.0-0.5-0.51-3.51,0,0,0,90,false,stim,false,-1,168.01499999928637,0,1,0,77921,WMM2,253005,false,true,337,image-keyboard-response,52
true,1,1,0,1,true,z,false,true,0.0-2.0-0.5-0.52-3.52,0,0,0,90,false,stim,false,-1,52.80000000129803,0,1,1,77921,WMM2,254573,false,false,340,image-keyboard-response,53
true,1,1,0,1,true,z,false,true,0.0-2.0-0.5-0.53-3.53,0,0,0,90,false,stim,false,-1,280.9899999992922,0,0,2,77921,WMM2,256374,false,false,343,image-keyboard-response,54
true,1,1,0,2,false,d,true,false,0.0-2.0-0.6-0.54-3.54,0,0,0,90,false,stim,false,-1,203.80500000101165,0,1,0,77921,WMM2,258090,false,false,346,image-keyboard-response,55
true,1,2,0,1,false,z,true,false,0.0-2.0-0.6-0.55-3.55,0,0,0,68,false,stim,false,-1,280.48000000126194,0,0,2,77921,WMM2,259896,false,false,349,image-keyboard-response,56
true,1,0,0,1,false,z,true,false,0.0-2.0-0.6-0.56-3.56,0,0,0,81,false,stim,false,-1,244.92000000103144,0,1,1,77921,WMM2,261664,false,false,352,image-keyboard-response,57
true,1,0,0,2,false,d,true,false,0.0-2.0-0.6-0.57-3.57,0,0,0,81,false,stim,false,-1,378.80500000028405,0,1,0,77921,WMM2,263575,false,false,355,image-keyboard-response,58
true,1,1,0,2,false,d,true,false,0.0-2.0-0.6-0.58-3.58,0,0,0,90,false,stim,false,-1,208.3100000018021,0,1,0,77921,WMM2,265297,false,false,358,image-keyboard-response,59
true,1,1,0,1,true,z,false,true,0.0-2.0-0.6-0.59-3.59,0,0,0,90,false,stim,false,-1,132.29999999748543,0,1,1,77921,WMM2,266957,false,false,361,image-keyboard-response,60
true,2,1,3,0,false,q,false,false,0.0-2.0-0.6-0.60-3.60,1,1,0,90,true,stim,true,1,125.16500000125961,0,0,2,77921,WMM2,268593,false,false,364,image-keyboard-response,1
true,2,2,3,1,false,z,true,false,0.0-2.0-0.6-0.61-3.61,1,1,0,68,false,stim,false,1,241.5149999978603,0,1,1,77921,WMM2,270370,false,false,367,image-keyboard-response,2
true,2,2,3,0,false,q,true,false,0.0-2.0-0.6-0.62-3.62,1,1,0,68,false,stim,false,1,32.724999997299165,0,0,2,77921,WMM2,271936,false,false,370,image-keyboard-response,3
true,2,0,3,1,false,z,true,false,0.0-2.0-0.7-0.63-3.63,1,1,0,81,false,stim,false,1,446.5100000016391,0,1,1,77921,WMM2,273909,false,false,373,image-keyboard-response,4
true,2,1,3,1,true,z,false,true,0.0-2.0-0.7-0.64-3.64,1,1,0,90,false,stim,false,1,335.6000000021304,0,1,1,77921,WMM2,275762,false,false,376,image-keyboard-response,5
true,2,1,3,2,false,d,true,false,0.0-2.0-0.7-0.65-3.65,1,1,0,90,false,stim,false,2,347.2150000015972,0,1,0,77921,WMM2,277631,false,false,379,image-keyboard-response,6
true,2,1,3,1,true,z,false,true,0.0-2.0-0.7-0.66-3.66,1,1,0,90,false,stim,false,1,245.25999999971827,0,1,1,77921,WMM2,279389,false,false,382,image-keyboard-response,7
true,2,1,3,2,false,d,true,false,0.0-2.0-0.7-0.67-3.67,1,1,0,90,false,stim,false,2,279.0150000000722,0,1,0,77921,WMM2,281197,false,false,385,image-keyboard-response,8
true,2,2,3,0,false,q,true,false,0.0-2.0-0.7-0.68-3.68,1,1,0,68,false,stim,false,1,273.8549999993993,0,0,2,77921,WMM2,282985,false,false,388,image-keyboard-response,9
true,2,1,3,2,false,d,true,false,0.0-2.0-0.7-0.69-3.69,1,1,0,90,false,stim,false,2,85.2649999979185,0,1,0,77921,WMM2,284589,false,false,391,image-keyboard-response,10
true,2,1,3,0,false,q,false,false,0.0-2.0-0.7-0.70-3.70,1,1,0,90,false,stim,true,1,56.830000001355074,0,0,2,77921,WMM2,286169,false,false,394,image-keyboard-response,11
true,2,0,3,0,true,q,false,true,0.0-2.0-0.7-0.71-3.71,1,1,0,81,false,stim,false,1,310.7500000005821,0,0,2,77921,WMM2,288013,false,false,397,image-keyboard-response,12
true,2,1,3,0,false,q,false,false,0.0-2.0-0.8-0.72-3.72,1,1,0,90,false,stim,true,1,86.02000000246335,0,0,2,77921,WMM2,289611,false,false,400,image-keyboard-response,13
true,2,0,3,2,false,d,true,false,0.0-2.0-0.8-0.73-3.73,1,1,0,81,false,stim,false,2,304.56000000052154,0,1,0,77921,WMM2,291441,false,false,403,image-keyboard-response,14
true,2,0,3,2,false,d,true,false,0.0-2.0-0.8-0.74-3.74,1,1,0,81,false,stim,false,2,0.25000000098953024,0,1,0,77921,WMM2,292965,false,false,406,image-keyboard-response,15
true,2,2,3,2,true,d,false,true,0.0-2.0-0.8-0.75-3.75,1,1,0,68,false,stim,false,2,358.20500000048196,0,1,0,77921,WMM2,294846,false,false,409,image-keyboard-response,16
true,2,1,3,0,false,q,false,false,0.0-2.0-0.8-0.76-3.76,1,1,0,90,false,stim,true,1,450.15000000060536,0,0,2,77921,WMM2,296815,false,false,412,image-keyboard-response,17
true,2,0,3,1,false,z,true,false,0.0-2.0-0.8-0.77-3.77,1,1,0,81,false,stim,false,1,259.65999999968335,0,1,1,77921,WMM2,298603,false,false,415,image-keyboard-response,18
true,2,2,3,0,false,q,true,false,0.0-2.0-0.8-0.78-3.78,1,1,0,68,false,stim,false,1,400.0300000006682,0,0,2,77921,WMM2,300516,false,false,418,image-keyboard-response,19
true,2,1,3,1,true,z,false,true,0.0-2.0-0.8-0.79-3.79,1,1,0,90,false,stim,false,1,262.79499999876134,0,1,1,77921,WMM2,302308,false,false,421,image-keyboard-response,20
true,2,1,3,1,true,z,false,true,0.0-2.0-0.8-0.80-3.80,1,1,0,90,false,stim,false,1,326.7249999990454,0,1,1,77921,WMM2,304172,false,false,424,image-keyboard-response,21
true,2,1,3,2,false,d,true,false,0.0-2.0-0.9-0.81-3.81,1,1,0,90,false,stim,false,2,242.83500000095228,0,1,0,77921,WMM2,305951,false,false,427,image-keyboard-response,22
true,2,2,3,2,true,d,false,true,0.0-2.0-0.9-0.82-3.82,1,1,0,68,false,stim,false,2,383.9250000019092,0,1,0,77921,WMM2,307863,false,false,430,image-keyboard-response,23
true,2,1,3,0,false,q,false,true,0.0-2.0-0.9-0.83-3.83,1,1,0,90,false,stim,true,1,146.61999999952968,0,0,2,77921,WMM2,309546,false,true,433,image-keyboard-response,24
true,2,1,3,0,false,q,false,false,0.0-2.0-0.9-0.84-3.84,1,1,0,90,false,stim,true,1,296.01500000356464,0,0,2,77921,WMM2,311370,false,false,436,image-keyboard-response,25
true,2,2,3,1,false,z,true,false,0.0-2.0-0.9-0.85-3.85,1,1,0,68,false,stim,false,1,424.80000000068685,0,1,1,77921,WMM2,313315,false,false,439,image-keyboard-response,26
true,2,1,3,1,true,z,false,true,0.0-2.0-0.9-0.86-3.86,1,1,0,90,false,stim,false,1,306.1049999996321,0,1,1,77921,WMM2,315145,false,false,442,image-keyboard-response,27
true,2,2,3,0,false,q,true,false,0.0-2.0-0.9-0.87-3.87,1,1,0,68,false,stim,false,1,433.77000000327826,0,0,2,77921,WMM2,317097,false,false,445,image-keyboard-response,28
true,2,1,3,2,false,d,true,false,0.0-2.0-0.9-0.88-3.88,1,1,0,90,false,stim,false,2,9.595000003173482,0,1,0,77921,WMM2,318628,false,false,448,image-keyboard-response,29
true,2,1,3,1,true,z,false,true,0.0-2.0-0.9-0.89-3.89,1,1,0,90,false,stim,false,1,264.58500000077765,0,1,1,77921,WMM2,320418,false,false,451,image-keyboard-response,30
true,2,1,3,2,false,d,true,false,0.0-2.0-0.10-0.90-3.90,1,1,0,90,false,stim,false,2,371.85999999928754,0,1,0,77921,WMM2,322318,false,false,454,image-keyboard-response,31
true,2,2,3,1,false,z,true,false,0.0-2.0-0.10-0.91-3.91,1,1,0,68,false,stim,false,1,243.0850000019418,0,1,1,77921,WMM2,324089,false,false,457,image-keyboard-response,32
true,2,0,3,2,false,d,true,false,0.0-2.0-0.10-0.92-3.92,1,1,0,81,false,stim,false,2,325.3399999993853,0,1,0,77921,WMM2,325939,false,false,460,image-keyboard-response,33
true,2,1,3,1,true,z,false,true,0.0-2.0-0.10-0.93-3.93,1,1,0,90,false,stim,false,1,4.535000000032596,0,1,1,77921,WMM2,327458,false,false,463,image-keyboard-response,34
true,2,1,3,2,false,d,true,false,0.0-2.0-0.10-0.94-3.94,1,1,0,90,false,stim,false,2,376.0199999997276,0,1,0,77921,WMM2,329358,false,false,466,image-keyboard-response,35
true,2,2,3,1,false,z,true,false,0.0-2.0-0.10-0.95-3.95,1,1,0,68,false,stim,false,1,347.1449999996694,0,1,1,77921,WMM2,331234,false,false,469,image-keyboard-response,36
true,2,2,3,0,false,q,true,false,0.0-2.0-0.10-0.96-3.96,1,1,0,68,false,stim,false,1,388.14999999885913,0,0,2,77921,WMM2,333138,false,false,472,image-keyboard-response,37
true,2,1,3,0,false,q,false,false,0.0-2.0-0.10-0.97-3.97,1,1,0,90,false,stim,true,1,341.1000000014319,0,0,2,77921,WMM2,335013,false,false,475,image-keyboard-response,38
true,2,0,3,0,true,q,false,true,0.0-2.0-0.10-0.98-3.98,1,1,0,81,false,stim,false,1,347.2650000003632,0,0,2,77921,WMM2,336899,false,false,478,image-keyboard-response,39
true,2,0,3,1,false,z,true,false,0.0-2.0-0.11-0.99-3.99,1,1,0,81,false,stim,false,1,322.99500000226544,0,1,1,77921,WMM2,338739,false,false,481,image-keyboard-response,40
true,2,1,3,2,false,d,true,false,0.0-2.0-0.11-0.100-3.100,1,1,0,90,false,stim,false,2,90.0099999998929,0,1,0,77921,WMM2,340362,false,false,484,image-keyboard-response,41
true,2,2,3,0,false,q,true,false,0.0-2.0-0.11-0.101-3.101,1,1,0,68,false,stim,false,1,452.240000002319,0,0,2,77921,WMM2,342344,false,false,487,image-keyboard-response,42
true,2,0,3,2,false,d,true,false,0.0-2.0-0.11-0.102-3.102,1,1,0,81,false,stim,false,2,24.105000000447035,0,1,0,77921,WMM2,343893,false,false,490,image-keyboard-response,43
true,2,0,3,1,false,z,true,true,0.0-2.0-0.11-0.103-3.103,1,1,0,81,false,stim,false,1,124.06500000000233,0,1,1,77921,WMM2,345541,false,true,493,image-keyboard-response,44
true,2,0,3,2,false,d,true,true,0.0-2.0-0.11-0.104-3.104,1,1,0,81,false,stim,false,2,194.27499999798601,0,1,0,77921,WMM2,347252,false,true,496,image-keyboard-response,45
true,2,0,3,0,true,q,false,false,0.0-2.0-0.11-0.105-3.105,1,1,0,81,false,stim,false,1,255.4199999976554,0,0,2,77921,WMM2,349039,false,true,499,image-keyboard-response,46
true,2,1,3,1,true,z,false,false,0.0-2.0-0.11-0.106-3.106,1,1,0,90,false,stim,false,1,12.580000002344605,0,1,1,77921,WMM2,350580,false,true,502,image-keyboard-response,47
true,2,1,3,0,false,q,false,false,0.0-2.0-0.11-0.107-3.107,1,1,0,90,false,stim,true,1,471.02000000083353,0,0,2,77921,WMM2,352587,false,false,505,image-keyboard-response,48
true,2,2,3,0,false,q,true,false,0.0-2.0-0.12-0.108-3.108,1,1,0,68,false,stim,false,1,435.4650000022957,0,0,2,77921,WMM2,354547,false,false,508,image-keyboard-response,49
true,2,2,3,1,false,z,true,false,0.0-2.0-0.12-0.109-3.109,1,1,0,68,false,stim,false,1,423.370000000461,0,1,1,77921,WMM2,356492,false,false,511,image-keyboard-response,50
true,2,0,3,2,false,d,true,false,0.0-2.0-0.12-0.110-3.110,1,1,0,81,false,stim,false,2,356.9449999995413,0,0,0,77921,WMM2,358369,false,false,514,image-keyboard-response,51
true,2,0,3,0,true,q,false,false,0.0-2.0-0.12-0.111-3.111,1,1,0,81,false,stim,false,1,312.96499999728985,0,1,2,77921,WMM2,360201,false,true,517,image-keyboard-response,52
true,2,1,3,0,false,q,false,false,0.0-2.0-0.12-0.112-3.112,1,1,0,90,false,stim,true,1,202.07000000303378,0,1,2,77921,WMM2,361928,false,false,520,image-keyboard-response,53
true,2,1,3,1,true,z,false,true,0.0-2.0-0.12-0.113-3.113,1,1,0,90,false,stim,false,1,404.28500000055647,0,1,1,77921,WMM2,363858,false,false,523,image-keyboard-response,54
true,2,1,3,2,false,d,true,false,0.0-2.0-0.12-0.114-3.114,1,1,0,90,false,stim,false,2,234.88000000000466,0,0,0,77921,WMM2,365618,false,false,526,image-keyboard-response,55
true,2,1,3,2,false,d,true,false,0.0-2.0-0.12-0.115-3.115,1,1,0,90,false,stim,false,2,351.7299999985262,0,0,0,77921,WMM2,367496,false,false,529,image-keyboard-response,56
true,2,0,3,1,false,z,true,false,0.0-2.0-0.12-0.116-3.116,1,1,0,81,false,stim,false,1,303.05500000028405,0,1,1,77921,WMM2,369321,false,false,532,image-keyboard-response,57
true,2,2,3,0,false,q,true,true,0.0-2.0-0.13-0.117-3.117,1,1,0,68,false,stim,false,1,416.04499999817926,0,1,2,77921,WMM2,371256,false,true,535,image-keyboard-response,58
true,2,2,3,1,false,z,true,false,0.0-2.0-0.13-0.118-3.118,1,1,0,68,false,stim,false,1,191.62999999755993,0,1,1,77921,WMM2,372975,false,false,538,image-keyboard-response,59
true,2,1,3,1,true,z,false,false,0.0-2.0-0.13-0.119-3.119,1,1,0,90,false,stim,false,1,170.2999999979511,0,1,1,77921,WMM2,374676,false,true,541,image-keyboard-response,60
true,3,1,4,0,false,q,true,true,0.0-2.0-0.13-0.120-3.120,0,1,1,90,true,stim,false,0,40.33999999961816,0,1,2,77921,WMM2,376247,false,true,544,image-keyboard-response,1
true,3,1,4,2,false,d,true,false,0.0-2.0-0.13-0.121-3.121,0,1,1,90,false,stim,false,2,285.6149999970221,0,0,0,77921,WMM2,378058,false,false,547,image-keyboard-response,2
true,3,1,4,1,true,z,false,true,0.0-2.0-0.13-0.122-3.122,0,1,1,90,false,stim,false,1,483.90999999898486,0,1,1,77921,WMM2,380055,false,false,550,image-keyboard-response,3
true,3,2,4,0,false,q,true,false,0.0-2.0-0.13-0.123-3.123,0,1,1,68,false,stim,false,0,919.4949999983073,0,1,2,77921,WMM2,382498,false,false,553,image-keyboard-response,4
true,3,0,4,2,false,d,true,false,0.0-2.0-0.13-0.124-3.124,0,1,1,81,false,stim,false,2,799.1000000001513,0,0,0,77921,WMM2,384825,false,false,556,image-keyboard-response,5
true,3,0,4,2,false,d,true,false,0.0-2.0-0.13-0.125-3.125,0,1,1,81,false,stim,false,2,397.3950000000186,0,0,0,77921,WMM2,386738,false,false,559,image-keyboard-response,6
true,3,1,4,1,true,z,false,true,0.0-2.0-0.14-0.126-3.126,0,1,1,90,false,stim,false,1,405.1900000012829,0,1,1,77921,WMM2,388672,false,false,562,image-keyboard-response,7
true,3,0,4,1,false,z,true,false,0.0-2.0-0.14-0.127-3.127,0,1,1,81,false,stim,false,1,532.0700000011129,0,1,1,77921,WMM2,390726,false,false,565,image-keyboard-response,8
true,3,0,4,0,true,q,false,true,0.0-2.0-0.14-0.128-3.128,0,1,1,81,false,stim,false,0,141.18500000040513,0,1,2,77921,WMM2,392379,false,false,568,image-keyboard-response,9
true,3,1,4,2,false,d,true,false,0.0-2.0-0.14-0.129-3.129,0,1,1,90,false,stim,false,2,623.9050000003772,0,0,0,77921,WMM2,394520,false,false,571,image-keyboard-response,10
true,3,0,4,0,true,q,false,false,0.0-2.0-0.14-0.130-3.130,0,1,1,81,false,stim,false,0,310.1199999983073,0,1,2,77921,WMM2,396350,false,true,574,image-keyboard-response,11
true,3,0,4,2,false,d,true,false,0.0-2.0-0.14-0.131-3.131,0,1,1,81,false,stim,false,2,7.710000001708977,0,0,0,77921,WMM2,397888,false,false,577,image-keyboard-response,12
true,3,2,4,0,false,q,true,false,0.0-2.0-0.14-0.132-3.132,0,1,1,68,false,stim,false,0,26.47500000236323,0,1,2,77921,WMM2,399436,false,false,580,image-keyboard-response,13
true,3,1,4,1,true,z,false,true,0.0-2.0-0.14-0.133-3.133,0,1,1,90,false,stim,false,1,376.7550000011688,0,1,1,77921,WMM2,401325,false,false,583,image-keyboard-response,14
true,3,1,4,2,false,d,true,false,0.0-2.0-0.14-0.134-3.134,0,1,1,90,false,stim,false,2,451.0950000003795,0,0,0,77921,WMM2,403304,false,false,586,image-keyboard-response,15
true,3,1,4,1,true,z,false,true,0.0-2.0-0.15-0.135-3.135,0,1,1,90,false,stim,false,1,607.4550000012387,0,1,1,77921,WMM2,405435,false,false,589,image-keyboard-response,16
true,3,1,4,1,true,z,false,true,0.0-2.0-0.15-0.136-3.136,0,1,1,90,false,stim,false,1,506.52000000257976,0,1,1,77921,WMM2,407469,false,false,592,image-keyboard-response,17
true,3,1,4,2,false,d,true,false,0.0-2.0-0.15-0.137-3.137,0,1,1,90,false,stim,false,2,421.2499999994179,0,0,0,77921,WMM2,409411,false,false,595,image-keyboard-response,18
true,3,1,4,0,false,q,true,false,0.0-2.0-0.15-0.138-3.138,0,1,1,90,false,stim,false,0,221.0400000003865,0,1,2,77921,WMM2,411154,false,false,598,image-keyboard-response,19
true,3,0,4,2,false,d,true,false,0.0-2.0-0.15-0.139-3.139,0,1,1,81,false,stim,false,2,328.77499999810243,0,0,0,77921,WMM2,413010,false,false,601,image-keyboard-response,20
true,3,0,4,0,true,q,false,true,0.0-2.0-0.15-0.140-3.140,0,1,1,81,false,stim,false,0,386.3299999975716,0,1,2,77921,WMM2,414930,false,false,604,image-keyboard-response,21
true,3,0,4,1,false,z,true,true,0.0-2.0-0.15-0.141-3.141,0,1,1,81,false,stim,false,1,31.79499999899417,0,1,1,77921,WMM2,416480,false,true,607,image-keyboard-response,22
true,3,0,4,2,false,d,true,false,0.0-2.0-0.15-0.142-3.142,0,1,1,81,false,stim,false,2,299.1600000023609,0,0,0,77921,WMM2,418304,false,false,610,image-keyboard-response,23
true,3,0,4,0,true,q,false,true,0.0-2.0-0.15-0.143-3.143,0,1,1,81,false,stim,false,0,132.6649999973597,0,1,2,77921,WMM2,419958,false,false,613,image-keyboard-response,24
true,3,0,4,2,false,d,true,false,0.0-2.0-0.16-0.144-3.144,0,1,1,81,false,stim,false,2,257.22500000114087,0,0,0,77921,WMM2,421729,false,false,616,image-keyboard-response,25
true,3,0,4,0,true,q,false,true,0.0-2.0-0.16-0.145-3.145,0,1,1,81,false,stim,false,0,397.55499999958556,0,1,2,77921,WMM2,423646,false,false,619,image-keyboard-response,26
true,3,0,4,1,false,z,true,false,0.0-2.0-0.16-0.146-3.146,0,1,1,81,false,stim,false,1,284.4250000016182,0,1,1,77921,WMM2,425458,false,false,622,image-keyboard-response,27
true,3,0,4,2,false,d,true,false,0.0-2.0-0.16-0.147-3.147,0,1,1,81,false,stim,false,2,600.0400000012014,0,0,0,77921,WMM2,427583,false,false,625,image-keyboard-response,28
true,3,1,4,0,false,q,true,false,0.0-2.0-0.16-0.148-3.148,0,1,1,90,false,stim,false,0,352.88999999826774,0,1,2,77921,WMM2,429465,false,false,628,image-keyboard-response,29
true,3,1,4,0,false,q,true,false,0.0-2.0-0.16-0.149-3.149,0,1,1,90,false,stim,false,0,93.39000000181841,0,1,2,77921,WMM2,431081,false,false,631,image-keyboard-response,30
true,3,2,4,1,false,z,true,false,0.0-2.0-0.16-0.150-3.150,0,1,1,68,false,stim,false,1,86.86999999918044,0,1,1,77921,WMM2,432697,false,false,634,image-keyboard-response,31
true,3,2,4,2,true,d,false,true,0.0-2.0-0.16-0.151-3.151,0,1,1,68,false,stim,false,2,106.51499999954831,0,0,0,77921,WMM2,434329,false,false,637,image-keyboard-response,32
true,3,1,4,1,true,z,false,true,0.0-2.0-0.16-0.152-3.152,0,1,1,90,false,stim,false,1,105.12499999825377,0,1,1,77921,WMM2,435962,false,false,640,image-keyboard-response,33
true,3,0,4,1,false,z,true,false,0.0-2.0-0.17-0.153-3.153,0,1,1,81,false,stim,false,1,182.71500000264496,0,1,1,77921,WMM2,437664,false,false,643,image-keyboard-response,34
true,3,0,4,1,false,z,true,false,0.0-2.0-0.17-0.154-3.154,0,1,1,81,false,stim,false,1,443.32500000018626,0,1,1,77921,WMM2,439640,false,false,646,image-keyboard-response,35
true,3,1,4,1,true,z,false,true,0.0-2.0-0.17-0.155-3.155,0,1,1,90,false,stim,false,1,365.925000001851,0,1,1,77921,WMM2,441539,false,false,649,image-keyboard-response,36
true,3,2,4,0,false,q,true,false,0.0-2.0-0.17-0.156-3.156,0,1,1,68,false,stim,false,0,369.1049999979441,0,1,2,77921,WMM2,443437,false,false,652,image-keyboard-response,37
true,3,2,4,2,true,d,false,false,0.0-2.0-0.17-0.157-3.157,0,1,1,68,false,stim,false,2,187.70499999658205,0,0,0,77921,WMM2,445146,false,true,655,image-keyboard-response,38
true,3,1,4,2,false,d,true,false,0.0-2.0-0.17-0.158-3.158,0,1,1,90,false,stim,false,2,197.24499999935506,0,0,0,77921,WMM2,446857,false,false,658,image-keyboard-response,39
true,3,1,4,2,false,d,true,false,0.0-2.0-0.17-0.159-3.159,0,1,1,90,false,stim,false,2,251.28500000206986,0,0,0,77921,WMM2,448645,false,false,661,image-keyboard-response,40
true,3,1,4,0,false,q,true,false,0.0-2.0-0.17-0.160-3.160,0,1,1,90,false,stim,false,0,317.3800000003539,0,1,2,77921,WMM2,450487,false,false,664,image-keyboard-response,41
true,3,0,4,0,true,q,false,true,0.0-2.0-0.17-0.161-3.161,0,1,1,81,false,stim,false,0,19.00500000192551,0,1,2,77921,WMM2,452032,false,false,667,image-keyboard-response,42
true,3,0,4,0,true,q,false,true,0.0-2.0-0.18-0.162-3.162,0,1,1,81,false,stim,false,0,150.86499999964144,0,1,2,77921,WMM2,453703,false,false,670,image-keyboard-response,43
true,3,0,4,1,false,z,true,false,0.0-2.0-0.18-0.163-3.163,0,1,1,81,false,stim,false,1,251.01500000164378,0,1,1,77921,WMM2,455479,false,false,673,image-keyboard-response,44
true,3,0,4,1,false,z,true,false,0.0-2.0-0.18-0.164-3.164,0,1,1,81,false,stim,false,1,626.2449999994715,0,1,1,77921,WMM2,457630,false,false,676,image-keyboard-response,45
true,3,1,4,2,false,d,true,false,0.0-2.0-0.18-0.165-3.165,0,1,1,90,false,stim,false,2,344.91999999957625,0,0,0,77921,WMM2,459495,false,false,679,image-keyboard-response,46
true,3,0,4,2,false,d,true,false,0.0-2.0-0.18-0.166-3.166,0,1,1,81,false,stim,false,2,301.4049999983399,0,0,0,77921,WMM2,461326,false,false,682,image-keyboard-response,47
true,3,0,4,0,true,q,false,true,0.0-2.0-0.18-0.167-3.167,0,1,1,81,false,stim,false,0,205.95500000129687,0,1,2,77921,WMM2,463048,false,false,685,image-keyboard-response,48
true,3,0,4,0,true,q,false,true,0.0-2.0-0.18-0.168-3.168,0,1,1,81,false,stim,false,0,112.3650000008056,0,1,2,77921,WMM2,464682,false,false,688,image-keyboard-response,49
true,3,0,4,2,false,d,true,false,0.0-2.0-0.18-0.169-3.169,0,1,1,81,false,stim,false,2,281.7399999985937,0,0,0,77921,WMM2,466501,false,false,691,image-keyboard-response,50
true,3,1,4,1,true,z,false,true,0.0-2.0-0.18-0.170-3.170,0,1,1,90,false,stim,false,1,102.46000000194181,0,1,1,77921,WMM2,468131,false,false,694,image-keyboard-response,51
true,3,1,4,0,false,q,true,false,0.0-2.0-0.19-0.171-3.171,0,1,1,90,false,stim,false,0,690.8850000000093,0,1,2,77921,WMM2,470347,false,false,697,image-keyboard-response,52
true,3,2,4,2,true,d,false,true,0.0-2.0-0.19-0.172-3.172,0,1,1,68,false,stim,false,2,546.4250000005122,0,0,0,77921,WMM2,472414,false,false,700,image-keyboard-response,53
true,3,2,4,2,true,d,false,true,0.0-2.0-0.19-0.173-3.173,0,1,1,68,false,stim,false,2,506.62000000011176,0,0,0,77921,WMM2,474447,false,false,703,image-keyboard-response,54
true,3,2,4,2,true,d,false,true,0.0-2.0-0.19-0.174-3.174,0,1,1,68,false,stim,false,2,368.72999999829335,0,0,0,77921,WMM2,476338,false,false,706,image-keyboard-response,55
true,3,2,4,1,false,z,true,false,0.0-2.0-0.19-0.175-3.175,0,1,1,68,false,stim,false,1,480.360000001383,0,1,1,77921,WMM2,478341,false,false,709,image-keyboard-response,56
true,3,0,4,1,false,z,true,false,0.0-2.0-0.19-0.176-3.176,0,1,1,81,false,stim,false,1,351.95500000187894,0,1,1,77921,WMM2,480215,false,false,712,image-keyboard-response,57
true,3,1,4,0,false,q,true,false,0.0-2.0-0.19-0.177-3.177,0,1,1,90,false,stim,false,0,388.53499999816995,0,1,2,77921,WMM2,482128,false,false,715,image-keyboard-response,58
true,3,1,4,1,true,z,false,true,0.0-2.0-0.19-0.178-3.178,0,1,1,90,false,stim,false,1,427.814999999071,0,1,1,77921,WMM2,484083,false,false,718,image-keyboard-response,59
true,3,1,4,0,false,q,true,false,0.0-2.0-0.19-0.179-3.179,0,1,1,90,false,stim,false,0,290.90500000165775,0,1,2,77921,WMM2,485888,false,false,721,image-keyboard-response,60
true,4,1,2,1,true,z,false,true,0.0-2.0-0.20-0.180-3.180,0,1,1,90,true,stim,false,1,530.4849999992875,0,1,1,77921,WMM2,487942,false,false,724,image-keyboard-response,1
true,4,1,2,0,false,q,true,false,0.0-2.0-0.20-0.181-3.181,0,1,1,90,false,stim,false,0,775.3200000006473,0,1,2,77921,WMM2,490241,false,false,727,image-keyboard-response,2
true,4,1,2,0,false,q,true,false,0.0-2.0-0.20-0.182-3.182,0,1,1,90,false,stim,false,0,1171.1400000021677,0,1,2,77921,WMM2,492936,false,false,730,image-keyboard-response,3
true,4,1,2,0,false,q,true,false,0.0-2.0-0.20-0.183-3.183,0,1,1,90,false,stim,false,2,372.51499999908265,0,0,0,77921,WMM2,494828,false,false,733,image-keyboard-response,4
true,4,0,2,1,false,z,true,false,0.0-2.0-0.20-0.184-3.184,0,1,1,81,false,stim,false,1,217.91499999747612,0,1,1,77921,WMM2,496574,false,false,736,image-keyboard-response,5
true,4,0,2,0,true,q,false,true,0.0-2.0-0.20-0.185-3.185,0,1,1,81,false,stim,false,0,359.92500000068685,0,1,2,77921,WMM2,498459,false,false,739,image-keyboard-response,6
true,4,0,2,0,true,q,false,true,0.0-2.0-0.20-0.186-3.186,0,1,1,81,false,stim,false,2,309.69000000180677,0,0,0,77921,WMM2,500283,false,false,742,image-keyboard-response,7
true,4,0,2,0,true,q,false,true,0.0-2.0-0.20-0.187-3.187,0,1,1,81,false,stim,false,2,536.8849999977392,0,0,0,77921,WMM2,502332,false,false,745,image-keyboard-response,8
true,4,0,2,1,false,z,true,false,0.0-2.0-0.20-0.188-3.188,0,1,1,81,false,stim,false,1,461.0050000010524,0,1,1,77921,WMM2,504316,false,false,748,image-keyboard-response,9
true,4,0,2,0,true,q,false,true,0.0-2.0-0.21-0.189-3.189,0,1,1,81,false,stim,false,2,445.04500000039116,0,0,0,77921,WMM2,506290,false,false,751,image-keyboard-response,10
true,4,0,2,0,true,q,false,true,0.0-2.0-0.21-0.190-3.190,0,1,1,81,false,stim,false,0,482.6949999987846,0,1,2,77921,WMM2,508292,false,false,754,image-keyboard-response,11
true,4,0,2,0,true,q,false,true,0.0-2.0-0.21-0.191-3.191,0,1,1,81,false,stim,false,0,602.725000000617,0,1,2,77921,WMM2,510418,false,false,757,image-keyboard-response,12
true,4,0,2,1,false,z,true,false,0.0-2.0-0.21-0.192-3.192,0,1,1,81,false,stim,false,1,394.0049999982584,0,1,1,77921,WMM2,512333,false,false,760,image-keyboard-response,13
true,4,1,2,0,false,q,true,false,0.0-2.0-0.21-0.193-3.193,0,1,1,90,false,stim,false,0,324.1450000022887,0,1,2,77921,WMM2,514181,false,false,763,image-keyboard-response,14
true,4,1,2,1,true,z,false,false,0.0-2.0-0.21-0.194-3.194,0,1,1,90,false,stim,false,1,235.5649999990128,0,1,1,77921,WMM2,515940,false,true,766,image-keyboard-response,15
true,4,1,2,0,false,q,true,false,0.0-2.0-0.21-0.195-3.195,0,1,1,90,false,stim,false,2,284.05500000010943,0,0,0,77921,WMM2,517744,false,false,769,image-keyboard-response,16
true,4,2,2,1,false,z,true,false,0.0-2.0-0.21-0.196-3.196,0,1,1,68,false,stim,false,1,364.59499999915715,0,1,1,77921,WMM2,519635,false,false,772,image-keyboard-response,17
true,4,2,2,0,false,q,false,false,0.0-2.0-0.21-0.197-3.197,0,1,1,68,false,stim,true,2,47.57999999856111,0,0,0,77921,WMM2,521213,false,false,775,image-keyboard-response,18
true,4,2,2,1,false,z,true,false,0.0-2.0-0.22-0.198-3.198,0,1,1,68,false,stim,false,1,288.5999999998603,0,1,1,77921,WMM2,523023,false,false,778,image-keyboard-response,19
true,4,0,2,1,false,z,true,false,0.0-2.0-0.22-0.199-3.199,0,1,1,81,false,stim,false,1,398.1000000021886,0,1,1,77921,WMM2,524946,false,false,781,image-keyboard-response,20
true,4,0,2,0,true,q,false,true,0.0-2.0-0.22-0.200-3.200,0,1,1,81,false,stim,false,0,58.46999999997206,0,1,2,77921,WMM2,526515,false,false,784,image-keyboard-response,21
true,4,0,2,0,true,q,false,true,0.0-2.0-0.22-0.201-3.201,0,1,1,81,false,stim,false,2,367.7849999985192,0,0,0,77921,WMM2,528403,false,false,787,image-keyboard-response,22
true,4,0,2,0,true,q,false,true,0.0-2.0-0.22-0.202-3.202,0,1,1,81,false,stim,false,2,429.0050000017509,0,0,0,77921,WMM2,530365,false,false,790,image-keyboard-response,23
true,4,1,2,0,false,q,true,false,0.0-2.0-0.22-0.203-3.203,0,1,1,90,false,stim,false,0,714.074999999837,0,1,2,77921,WMM2,532610,false,false,793,image-keyboard-response,24
true,4,1,2,0,false,q,true,false,0.0-2.0-0.22-0.204-3.204,0,1,1,90,false,stim,false,0,346.32499999867287,0,1,2,77921,WMM2,534480,false,false,796,image-keyboard-response,25
true,4,2,2,0,false,q,false,false,0.0-2.0-0.22-0.205-3.205,0,1,1,68,false,stim,true,2,395.52000000176486,0,0,0,77921,WMM2,536404,false,false,799,image-keyboard-response,26
true,4,2,2,1,false,z,true,false,0.0-2.0-0.22-0.206-3.206,0,1,1,68,false,stim,false,1,21.690000001341105,0,1,1,77921,WMM2,537957,false,false,802,image-keyboard-response,27
true,4,2,2,0,false,q,true,false,0.0-2.0-0.23-0.207-3.207,0,1,1,68,false,stim,false,0,452.7650000017602,0,1,2,77921,WMM2,539932,false,false,805,image-keyboard-response,28
true,4,2,2,1,false,z,true,true,0.0-2.0-0.23-0.208-3.208,0,1,1,68,false,stim,false,1,630.2000000033295,0,1,1,77921,WMM2,542080,false,true,808,image-keyboard-response,29
true,4,2,2,1,false,z,true,false,0.0-2.0-0.23-0.209-3.209,0,1,1,68,false,stim,false,1,361.42499999911524,0,1,1,77921,WMM2,543955,false,false,811,image-keyboard-response,30
true,4,0,2,0,true,q,false,true,0.0-2.0-0.23-0.210-3.210,0,1,1,81,false,stim,false,2,368.51000000024214,0,0,0,77921,WMM2,545853,false,false,814,image-keyboard-response,31
true,4,0,2,0,true,q,false,true,0.0-2.0-0.23-0.211-3.211,0,1,1,81,false,stim,false,2,320.83000000054017,0,0,0,77921,WMM2,547705,false,false,817,image-keyboard-response,32
true,4,0,2,0,true,q,false,false,0.0-2.0-0.23-0.212-3.212,0,1,1,81,false,stim,false,0,395.30999999993946,0,1,2,77921,WMM2,549622,false,true,820,image-keyboard-response,33
true,4,2,2,1,false,z,true,false,0.0-2.0-0.23-0.213-3.213,0,1,1,68,false,stim,false,1,721.8299999985611,0,1,1,77921,WMM2,551872,false,false,823,image-keyboard-response,34
true,4,2,2,0,false,q,false,false,0.0-2.0-0.23-0.214-3.214,0,1,1,68,false,stim,true,2,353.16499999689404,0,0,0,77921,WMM2,553751,false,false,826,image-keyboard-response,35
true,4,1,2,0,false,q,true,false,0.0-2.0-0.23-0.215-3.215,0,1,1,90,false,stim,false,0,7.805000001098961,0,1,2,77921,WMM2,555282,false,false,829,image-keyboard-response,36
true,4,1,2,1,true,z,false,true,0.0-2.0-0.24-0.216-3.216,0,1,1,90,false,stim,false,1,379.4799999995157,0,1,1,77921,WMM2,557190,false,false,832,image-keyboard-response,37
true,4,1,2,0,false,q,true,false,0.0-2.0-0.24-0.217-3.217,0,1,1,90,false,stim,false,2,167.5250000008382,0,0,0,77921,WMM2,558884,false,false,835,image-keyboard-response,38
true,4,0,2,1,false,z,true,false,0.0-2.0-0.24-0.218-3.218,0,1,1,81,false,stim,false,1,393.0849999997299,0,1,1,77921,WMM2,560810,false,false,838,image-keyboard-response,39
true,4,0,2,0,true,q,false,true,0.0-2.0-0.24-0.219-3.219,0,1,1,81,false,stim,false,0,113.33499999821652,0,1,2,77921,WMM2,562440,false,false,841,image-keyboard-response,40
true,4,0,2,0,true,q,false,true,0.0-2.0-0.24-0.220-3.220,0,1,1,81,false,stim,false,2,149.5649999997113,0,0,0,77921,WMM2,564119,false,false,844,image-keyboard-response,41
true,4,0,2,1,false,z,true,false,0.0-2.0-0.24-0.221-3.221,0,1,1,81,false,stim,false,1,479.38000000070315,0,1,1,77921,WMM2,566117,false,false,847,image-keyboard-response,42
true,4,0,2,0,true,q,false,true,0.0-2.0-0.24-0.222-3.222,0,1,1,81,false,stim,false,0,378.31999999983236,0,1,2,77921,WMM2,568012,false,false,850,image-keyboard-response,43
true,4,0,2,0,true,q,false,true,0.0-2.0-0.24-0.223-3.223,0,1,1,81,false,stim,false,0,381.7049999998417,0,1,2,77921,WMM2,569907,false,false,853,image-keyboard-response,44
true,4,0,2,0,true,q,false,true,0.0-2.0-0.24-0.224-3.224,0,1,1,81,false,stim,false,2,392.6699999974808,0,0,0,77921,WMM2,571823,false,false,856,image-keyboard-response,45
true,4,0,2,0,true,q,false,true,0.0-2.0-0.25-0.225-3.225,0,1,1,81,false,stim,false,0,549.4099999995669,0,1,2,77921,WMM2,573897,false,false,859,image-keyboard-response,46
true,4,0,2,1,false,z,true,false,0.0-2.0-0.25-0.226-3.226,0,1,1,81,false,stim,false,1,338.8550000017276,0,1,1,77921,WMM2,575763,false,false,862,image-keyboard-response,47
true,4,0,2,0,true,q,false,true,0.0-2.0-0.25-0.227-3.227,0,1,1,81,false,stim,false,2,189.4700000011362,0,0,0,77921,WMM2,577477,false,false,865,image-keyboard-response,48
true,4,0,2,1,false,z,true,false,0.0-2.0-0.25-0.228-3.228,0,1,1,81,false,stim,false,1,224.33000000100583,0,1,1,77921,WMM2,579233,false,false,868,image-keyboard-response,49
true,4,0,2,1,false,z,true,false,0.0-2.0-0.25-0.229-3.229,0,1,1,81,false,stim,false,1,79.02499999897555,0,1,1,77921,WMM2,580844,false,false,871,image-keyboard-response,50
true,4,1,2,0,false,q,true,false,0.0-2.0-0.25-0.230-3.230,0,1,1,90,false,stim,false,0,803.7149999982212,0,1,2,77921,WMM2,583178,false,false,874,image-keyboard-response,51
true,4,1,2,0,false,q,true,false,0.0-2.0-0.25-0.231-3.231,0,1,1,90,false,stim,false,0,317.1799999981886,0,1,2,77921,WMM2,585018,false,false,877,image-keyboard-response,52
true,4,2,2,0,false,q,false,false,0.0-2.0-0.25-0.232-3.232,0,1,1,68,false,stim,true,2,241.64500000188127,0,0,0,77921,WMM2,586772,false,false,880,image-keyboard-response,53
true,4,2,2,0,false,q,false,false,0.0-2.0-0.25-0.233-3.233,0,1,1,68,false,stim,true,2,133.34500000206754,0,0,0,77921,WMM2,588414,false,false,883,image-keyboard-response,54
true,4,1,2,0,false,q,true,false,0.0-2.0-0.26-0.234-3.234,0,1,1,90,false,stim,false,0,35.74999999906868,0,1,2,77921,WMM2,589969,false,false,886,image-keyboard-response,55
true,4,2,2,0,false,q,true,true,0.0-2.0-0.26-0.235-3.235,0,1,1,68,false,stim,false,0,127.80999999819323,0,1,2,77921,WMM2,591628,false,true,889,image-keyboard-response,56
true,4,2,2,1,false,z,true,false,0.0-2.0-0.26-0.236-3.236,0,1,1,68,false,stim,false,1,525.8049999976065,0,1,1,77921,WMM2,593668,false,false,892,image-keyboard-response,57
true,4,1,2,0,false,q,true,false,0.0-2.0-0.26-0.237-3.237,0,1,1,90,false,stim,false,2,633.0250000029337,0,0,0,77921,WMM2,595824,false,false,895,image-keyboard-response,58
true,4,0,2,0,true,q,false,true,0.0-2.0-0.26-0.238-3.238,0,1,1,81,false,stim,false,0,8.049999996670522,0,1,2,77921,WMM2,597354,false,false,898,image-keyboard-response,59
true,4,0,2,0,true,q,false,true,0.0-2.0-0.26-0.239-3.239,0,1,1,81,false,stim,false,2,110.26000000128988,0,0,0,77921,WMM2,598992,false,false,901,image-keyboard-response,60
true,5,0,4,1,false,z,true,true,0.0-2.0-0.26-0.240-3.240,0,1,1,81,true,stim,false,1,427.1699999989942,0,1,1,77921,WMM2,600928,false,true,904,image-keyboard-response,1
true,5,0,4,0,true,q,false,true,0.0-2.0-0.26-0.241-3.241,0,1,1,81,false,stim,false,0,231.19500000029802,0,0,0,77921,WMM2,602694,false,false,907,image-keyboard-response,2
true,5,0,4,1,false,z,true,false,0.0-2.0-0.26-0.242-3.242,0,1,1,81,false,stim,false,1,595.4450000027427,0,1,1,77921,WMM2,604801,false,false,910,image-keyboard-response,3
true,5,1,4,0,false,q,true,false,0.0-2.0-0.27-0.243-3.243,0,1,1,90,false,stim,false,0,455.92499999841675,0,0,0,77921,WMM2,606792,false,false,913,image-keyboard-response,4
true,5,2,4,1,false,z,true,false,0.0-2.0-0.27-0.244-3.244,0,1,1,68,false,stim,false,1,321.025000001071,0,1,1,77921,WMM2,608639,false,false,916,image-keyboard-response,5
true,5,2,4,0,false,q,true,false,0.0-2.0-0.27-0.245-3.245,0,1,1,68,false,stim,false,0,481.70999999996275,0,1,2,77921,WMM2,610641,false,false,919,image-keyboard-response,6
true,5,1,4,0,false,q,true,true,0.0-2.0-0.27-0.246-3.246,0,1,1,90,false,stim,false,0,362.99500000313856,0,1,2,77921,WMM2,612512,false,true,922,image-keyboard-response,7
true,5,1,4,0,false,q,true,false,0.0-2.0-0.27-0.247-3.247,0,1,1,90,false,stim,false,0,459.70999999914784,0,0,0,77921,WMM2,614501,false,false,925,image-keyboard-response,8
true,5,0,4,0,true,q,false,true,0.0-2.0-0.27-0.248-3.248,0,1,1,81,false,stim,false,0,396.29000000061933,0,1,2,77921,WMM2,616415,false,false,928,image-keyboard-response,9
true,5,0,4,0,true,q,false,true,0.0-2.0-0.27-0.249-3.249,0,1,1,81,false,stim,false,0,441.3849999982631,0,0,0,77921,WMM2,618383,false,false,931,image-keyboard-response,10
true,5,0,4,1,false,z,true,false,0.0-2.0-0.27-0.250-3.250,0,1,1,81,false,stim,false,1,405.0299999981653,0,1,1,77921,WMM2,620325,false,false,934,image-keyboard-response,11
true,5,0,4,1,false,z,true,false,0.0-2.0-0.27-0.251-3.251,0,1,1,81,false,stim,false,1,343.69000000157394,0,1,1,77921,WMM2,622188,false,false,937,image-keyboard-response,12
true,5,0,4,0,true,q,false,true,0.0-2.0-0.28-0.252-3.252,0,1,1,81,false,stim,false,0,303.54499999887776,0,0,0,77921,WMM2,624029,false,false,940,image-keyboard-response,13
true,5,0,4,1,false,z,true,true,0.0-2.0-0.28-0.253-3.253,0,1,1,81,false,stim,false,1,441.88500000024214,0,1,1,77921,WMM2,626005,false,true,943,image-keyboard-response,14
true,5,0,4,0,true,q,false,false,0.0-2.0-0.28-0.254-3.254,0,1,1,81,false,stim,false,0,353.94000000087544,0,1,2,77921,WMM2,627890,false,true,946,image-keyboard-response,15
true,5,0,4,0,true,q,false,true,0.0-2.0-0.28-0.255-3.255,0,1,1,81,false,stim,false,0,466.04500000108965,0,1,2,77921,WMM2,629870,false,false,949,image-keyboard-response,16
true,5,0,4,0,true,q,false,false,0.0-2.0-0.28-0.256-3.256,0,1,1,81,false,stim,false,0,401.20500000193715,0,0,0,77921,WMM2,631799,false,true,952,image-keyboard-response,17
true,5,2,4,0,false,q,true,false,0.0-2.0-0.28-0.257-3.257,0,1,1,68,false,stim,false,0,355.3399999982212,0,1,2,77921,WMM2,633680,false,false,955,image-keyboard-response,18
true,5,2,4,1,false,z,true,false,0.0-2.0-0.28-0.258-3.258,0,1,1,68,false,stim,false,1,174.25,0,1,1,77921,WMM2,635389,false,false,958,image-keyboard-response,19
true,5,1,4,0,false,q,true,true,0.0-2.0-0.28-0.259-3.259,0,1,1,90,false,stim,false,0,82.71500000054948,0,0,0,77921,WMM2,636983,false,true,961,image-keyboard-response,20
true,5,1,4,1,true,z,false,true,0.0-2.0-0.28-0.260-3.260,0,1,1,90,false,stim,false,1,333.02000000176486,0,1,1,77921,WMM2,638837,false,false,964,image-keyboard-response,21
true,5,1,4,1,true,z,false,true,0.0-2.0-0.29-0.261-3.261,0,1,1,90,false,stim,false,1,312.8350000005448,0,1,1,77921,WMM2,640673,false,false,967,image-keyboard-response,22
true,5,0,4,0,true,q,false,true,0.0-2.0-0.29-0.262-3.262,0,1,1,81,false,stim,false,0,380.4049999999115,0,0,0,77921,WMM2,642583,false,false,970,image-keyboard-response,23
true,5,0,4,1,false,z,true,false,0.0-2.0-0.29-0.263-3.263,0,1,1,81,false,stim,false,1,298.03499999979977,0,1,1,77921,WMM2,644410,false,false,973,image-keyboard-response,24
true,5,0,4,0,true,q,false,true,0.0-2.0-0.29-0.264-3.264,0,1,1,81,false,stim,false,0,255.3349999981001,0,0,0,77921,WMM2,646194,false,false,976,image-keyboard-response,25
true,5,0,4,0,true,q,false,true,0.0-2.0-0.29-0.265-3.265,0,1,1,81,false,stim,false,0,406.26500000141095,0,0,0,77921,WMM2,648114,false,false,979,image-keyboard-response,26
true,5,0,4,1,false,z,true,false,0.0-2.0-0.29-0.266-3.266,0,1,1,81,false,stim,false,1,371.35500000289176,0,1,1,77921,WMM2,650008,false,false,982,image-keyboard-response,27
true,5,1,4,0,false,q,true,true,0.0-2.0-0.29-0.267-3.267,0,1,1,90,false,stim,false,0,788.1100000012666,0,1,2,77921,WMM2,652317,false,true,985,image-keyboard-response,28
true,5,1,4,0,false,q,true,false,0.0-2.0-0.29-0.268-3.268,0,1,1,90,false,stim,false,0,763.9049999997951,0,1,2,77921,WMM2,654605,false,false,988,image-keyboard-response,29
true,5,0,4,0,true,q,false,true,0.0-2.0-0.29-0.269-3.269,0,1,1,81,false,stim,false,0,357.5299999974668,0,1,2,77921,WMM2,656499,false,false,991,image-keyboard-response,30
true,5,0,4,1,false,z,true,false,0.0-2.0-0.30-0.270-3.270,0,1,1,81,false,stim,false,1,377.74500000162516,0,1,1,77921,WMM2,658412,false,false,994,image-keyboard-response,31
true,5,0,4,1,false,z,true,false,0.0-2.0-0.30-0.271-3.271,0,1,1,81,false,stim,false,1,223.97499999718275,0,1,1,77921,WMM2,660149,false,false,997,image-keyboard-response,32
true,5,1,4,0,false,q,true,false,0.0-2.0-0.30-0.272-3.272,0,1,1,90,false,stim,false,0,384.409999998752,0,1,2,77921,WMM2,662065,false,false,1000,image-keyboard-response,33
true,5,2,4,0,false,q,true,false,0.0-2.0-0.30-0.273-3.273,0,1,1,68,false,stim,false,0,249.3900000009453,0,1,2,77921,WMM2,663858,false,false,1003,image-keyboard-response,34
true,5,2,4,0,false,q,true,false,0.0-2.0-0.30-0.274-3.274,0,1,1,68,false,stim,false,0,235.80000000225846,0,0,0,77921,WMM2,665623,false,false,1006,image-keyboard-response,35
true,5,1,4,1,true,z,false,true,0.0-2.0-0.30-0.275-3.275,0,1,1,90,false,stim,false,1,72.83000000088941,0,1,1,77921,WMM2,667220,false,false,1009,image-keyboard-response,36
true,5,1,4,0,false,q,true,false,0.0-2.0-0.30-0.276-3.276,0,1,1,90,false,stim,false,0,163.29500000202097,0,1,2,77921,WMM2,668917,false,false,1012,image-keyboard-response,37
true,5,0,4,0,true,q,false,true,0.0-2.0-0.30-0.277-3.277,0,1,1,81,false,stim,false,0,343.0750000006519,0,0,0,77921,WMM2,670775,false,false,1015,image-keyboard-response,38
true,5,0,4,0,true,q,false,false,0.0-2.0-0.30-0.278-3.278,0,1,1,81,false,stim,false,0,327.4700000002049,0,0,0,77921,WMM2,672618,false,true,1018,image-keyboard-response,39
true,5,0,4,0,true,q,false,true,0.0-2.0-0.31-0.279-3.279,0,1,1,81,false,stim,false,0,471.89499999873806,0,0,0,77921,WMM2,674621,false,false,1021,image-keyboard-response,40
true,5,0,4,0,true,q,false,true,0.0-2.0-0.31-0.280-3.280,0,1,1,81,false,stim,false,0,442.18499999982305,0,1,2,77921,WMM2,676585,false,false,1024,image-keyboard-response,41
true,5,1,4,0,false,q,true,false,0.0-2.0-0.31-0.281-3.281,0,1,1,90,false,stim,false,0,738.6349999979138,0,0,0,77921,WMM2,678859,false,false,1027,image-keyboard-response,42
true,5,0,4,0,true,q,false,true,0.0-2.0-0.31-0.282-3.282,0,1,1,81,false,stim,false,0,288.1549999983981,0,1,2,77921,WMM2,680670,false,false,1030,image-keyboard-response,43
true,5,0,4,0,true,q,false,true,0.0-2.0-0.31-0.283-3.283,0,1,1,81,false,stim,false,0,397.1899999997113,0,0,0,77921,WMM2,682589,false,false,1033,image-keyboard-response,44
true,5,0,4,1,false,z,true,false,0.0-2.0-0.31-0.284-3.284,0,1,1,81,false,stim,false,1,265.86000000312924,0,1,1,77921,WMM2,684384,false,false,1036,image-keyboard-response,45
true,5,1,4,1,true,z,false,true,0.0-2.0-0.31-0.285-3.285,0,1,1,90,false,stim,false,1,363.13499999954365,0,1,1,77921,WMM2,686288,false,false,1039,image-keyboard-response,46
true,5,1,4,0,false,q,true,false,0.0-2.0-0.31-0.286-3.286,0,1,1,90,false,stim,false,0,520.4850000009174,0,1,2,77921,WMM2,688336,false,false,1042,image-keyboard-response,47
true,5,2,4,1,false,z,true,false,0.0-2.0-0.31-0.287-3.287,0,1,1,68,false,stim,false,1,342.75999999954365,0,1,1,77921,WMM2,690208,false,false,1045,image-keyboard-response,48
true,5,0,4,0,true,q,false,true,0.0-2.0-0.32-0.288-3.288,0,1,1,81,false,stim,false,0,362.77000000339467,0,1,2,77921,WMM2,692098,false,false,1048,image-keyboard-response,49
true,5,0,4,1,false,z,true,false,0.0-2.0-0.32-0.289-3.289,0,1,1,81,false,stim,false,1,122.41499999794178,0,1,1,77921,WMM2,693749,false,false,1051,image-keyboard-response,50
true,5,0,4,0,true,q,false,true,0.0-2.0-0.32-0.290-3.290,0,1,1,81,false,stim,false,0,446.7499999991851,0,1,0,77921,WMM2,695722,false,false,1054,image-keyboard-response,51
true,5,0,4,1,false,z,true,false,0.0-2.0-0.32-0.291-3.291,0,1,1,81,false,stim,false,1,382.4500000010012,0,1,1,77921,WMM2,697634,false,false,1057,image-keyboard-response,52
true,5,0,4,0,true,q,false,true,0.0-2.0-0.32-0.292-3.292,0,1,1,81,false,stim,false,0,828.5450000002747,0,1,0,77921,WMM2,699990,false,false,1060,image-keyboard-response,53
true,5,0,4,1,false,z,true,true,0.0-2.0-0.32-0.293-3.293,0,1,1,81,false,stim,false,1,152.19499999878462,0,1,1,77921,WMM2,701656,false,true,1063,image-keyboard-response,54
true,5,0,4,0,true,q,false,true,0.0-2.0-0.32-0.294-3.294,0,1,1,81,false,stim,false,0,585.095000002184,0,0,2,77921,WMM2,703767,false,false,1066,image-keyboard-response,55
true,5,0,4,0,true,q,false,true,0.0-2.0-0.32-0.295-3.295,0,1,1,81,false,stim,false,0,380.7199999974109,0,1,0,77921,WMM2,705673,false,false,1069,image-keyboard-response,56
true,5,0,4,0,true,q,false,false,0.0-2.0-0.32-0.296-3.296,0,1,1,81,false,stim,false,0,724.1050000011455,0,0,2,77921,WMM2,707926,false,true,1072,image-keyboard-response,57
true,5,1,4,1,true,z,false,true,0.0-2.0-0.33-0.297-3.297,0,1,1,90,false,stim,false,1,205.41499999677762,0,1,1,77921,WMM2,709665,false,false,1075,image-keyboard-response,58
true,5,1,4,0,false,q,true,false,0.0-2.0-0.33-0.298-3.298,0,1,1,90,false,stim,false,0,319.26000000024214,0,1,0,77921,WMM2,711509,false,false,1078,image-keyboard-response,59
true,5,2,4,0,false,q,true,false,0.0-2.0-0.33-0.299-3.299,0,1,1,68,false,stim,false,0,380.4550000022864,0,1,0,77921,WMM2,713413,false,false,1081,image-keyboard-response,60
true,6,1,3,2,false,d,true,true,0.0-2.0-0.33-0.300-3.300,1,1,0,90,true,stim,false,0,99.15499999991152,0,0,2,77921,WMM2,715039,false,true,1084,image-keyboard-response,1
true,6,1,3,1,true,z,false,true,0.0-2.0-0.33-0.301-3.301,1,1,0,90,false,stim,false,1,606.7399999992922,0,1,1,77921,WMM2,717166,false,false,1087,image-keyboard-response,2
true,6,1,3,1,true,z,false,true,0.0-2.0-0.33-0.302-3.302,1,1,0,90,false,stim,false,1,518.0700000019278,0,1,1,77921,WMM2,719219,false,false,1090,image-keyboard-response,3
true,6,1,3,2,false,d,true,false,0.0-2.0-0.33-0.303-3.303,1,1,0,90,false,stim,false,0,565.5550000009825,0,0,2,77921,WMM2,721303,false,false,1093,image-keyboard-response,4
true,6,1,3,0,false,q,true,false,0.0-2.0-0.33-0.304-3.304,1,1,0,90,false,stim,false,0,783.8249999985565,0,1,0,77921,WMM2,723605,false,false,1096,image-keyboard-response,5
true,6,0,3,2,false,d,false,false,0.0-2.0-0.33-0.305-3.305,1,1,0,81,false,stim,true,0,336.4099999999162,0,0,2,77921,WMM2,725465,false,false,1099,image-keyboard-response,6
true,6,0,3,1,false,z,true,true,0.0-2.0-0.34-0.306-3.306,1,1,0,81,false,stim,false,1,498.7300000030082,0,1,1,77921,WMM2,727502,false,true,1102,image-keyboard-response,7
true,6,0,3,2,false,d,false,false,0.0-2.0-0.34-0.307-3.307,1,1,0,81,false,stim,true,0,422.0400000013178,0,0,2,77921,WMM2,729452,false,false,1105,image-keyboard-response,8
true,6,0,3,0,true,q,false,true,0.0-2.0-0.34-0.308-3.308,1,1,0,81,false,stim,false,0,343.3049999985378,0,1,0,77921,WMM2,731318,false,false,1108,image-keyboard-response,9
true,6,0,3,1,false,z,true,false,0.0-2.0-0.34-0.309-3.309,1,1,0,81,false,stim,false,1,502.04500000108965,0,1,1,77921,WMM2,733346,false,false,1111,image-keyboard-response,10
true,6,0,3,0,true,q,false,true,0.0-2.0-0.34-0.310-3.310,1,1,0,81,false,stim,false,0,215.78999999840744,0,1,0,77921,WMM2,735086,false,false,1114,image-keyboard-response,11
true,6,0,3,1,false,z,true,false,0.0-2.0-0.34-0.311-3.311,1,1,0,81,false,stim,false,1,385.089999999851,0,1,1,77921,WMM2,736986,false,false,1117,image-keyboard-response,12
true,6,0,3,0,true,q,false,true,0.0-2.0-0.34-0.312-3.312,1,1,0,81,false,stim,false,0,426.85999999952037,0,1,0,77921,WMM2,738939,false,false,1120,image-keyboard-response,13
true,6,0,3,2,false,d,false,false,0.0-2.0-0.34-0.313-3.313,1,1,0,81,false,stim,true,0,483.16500000143424,0,0,2,77921,WMM2,740935,false,false,1123,image-keyboard-response,14
true,6,0,3,2,false,d,false,false,0.0-2.0-0.34-0.314-3.314,1,1,0,81,false,stim,true,0,288.93499999679625,0,0,2,77921,WMM2,742748,false,false,1126,image-keyboard-response,15
true,6,1,3,2,false,d,true,false,0.0-2.0-0.35-0.315-3.315,1,1,0,90,false,stim,false,0,232.6199999989476,0,0,2,77921,WMM2,744508,false,false,1129,image-keyboard-response,16
true,6,1,3,1,true,z,false,true,0.0-2.0-0.35-0.316-3.316,1,1,0,90,false,stim,false,1,433.4450000023935,0,1,1,77921,WMM2,746466,false,false,1132,image-keyboard-response,17
true,6,1,3,2,false,d,true,false,0.0-2.0-0.35-0.317-3.317,1,1,0,90,false,stim,false,0,883.9599999991478,0,0,2,77921,WMM2,748876,false,false,1135,image-keyboard-response,18
true,6,0,3,0,true,q,false,true,0.0-2.0-0.35-0.318-3.318,1,1,0,81,false,stim,false,0,1940.8850000000093,0,1,0,77921,WMM2,752349,false,false,1138,image-keyboard-response,19
true,6,0,3,1,false,z,true,false,0.0-2.0-0.35-0.319-3.319,1,1,0,81,false,stim,false,1,442.93000000109896,0,1,1,77921,WMM2,754315,false,false,1141,image-keyboard-response,20
true,6,0,3,2,false,d,false,false,0.0-2.0-0.35-0.320-3.320,1,1,0,81,false,stim,true,0,927.7149999979883,0,0,2,77921,WMM2,756777,false,false,1144,image-keyboard-response,21
true,6,2,3,1,false,z,true,true,0.0-2.0-0.35-0.321-3.321,1,1,0,68,false,stim,false,1,102.69500000146218,0,1,1,77921,WMM2,758400,false,true,1147,image-keyboard-response,22
true,6,2,3,0,false,q,true,false,0.0-2.0-0.35-0.322-3.322,1,1,0,68,false,stim,false,0,650.64000000339,0,1,0,77921,WMM2,760591,false,false,1150,image-keyboard-response,23
true,6,1,3,0,false,q,true,false,0.0-2.0-0.35-0.323-3.323,1,1,0,90,false,stim,false,0,76.94999999878928,0,1,0,77921,WMM2,762190,false,false,1153,image-keyboard-response,24
true,6,0,3,1,false,z,true,false,0.0-2.0-0.36-0.324-3.324,1,1,0,81,false,stim,false,1,252.30500000179745,0,1,1,77921,WMM2,763973,false,false,1156,image-keyboard-response,25
true,6,1,3,0,false,q,true,false,0.0-2.0-0.36-0.325-3.325,1,1,0,90,false,stim,false,0,820.4200000000419,0,1,0,77921,WMM2,766315,false,false,1159,image-keyboard-response,26
true,6,0,3,0,true,q,false,false,0.0-2.0-0.36-0.326-3.326,1,1,0,81,false,stim,false,0,467.72000000067055,0,1,0,77921,WMM2,768309,false,true,1162,image-keyboard-response,27
true,6,1,3,2,false,d,true,false,0.0-2.0-0.36-0.327-3.327,1,1,0,90,false,stim,false,0,913.7049999990268,0,0,2,77921,WMM2,770764,false,false,1165,image-keyboard-response,28
true,6,2,3,0,false,q,true,false,0.0-2.0-0.36-0.328-3.328,1,1,0,68,false,stim,false,0,419.56999999820255,0,1,0,77921,WMM2,772720,false,false,1168,image-keyboard-response,29
true,6,1,3,1,true,z,false,true,0.0-2.0-0.36-0.329-3.329,1,1,0,90,false,stim,false,1,463.5500000003958,0,1,1,77921,WMM2,774709,false,false,1171,image-keyboard-response,30
true,6,1,3,2,false,d,true,false,0.0-2.0-0.36-0.330-3.330,1,1,0,90,false,stim,false,0,719.564999999362,0,0,2,77921,WMM2,776955,false,false,1174,image-keyboard-response,31
true,6,0,3,2,false,d,false,false,0.0-2.0-0.36-0.331-3.331,1,1,0,81,false,stim,true,0,846.880000000936,0,0,2,77921,WMM2,779310,false,false,1177,image-keyboard-response,32
true,6,0,3,1,false,z,true,false,0.0-2.0-0.36-0.332-3.332,1,1,0,81,false,stim,false,1,141.22499999939464,0,1,1,77921,WMM2,780972,false,false,1180,image-keyboard-response,33
true,6,1,3,2,false,d,true,false,0.0-2.0-0.37-0.333-3.333,1,1,0,90,false,stim,false,0,588.9099999985192,0,0,2,77921,WMM2,783097,false,false,1183,image-keyboard-response,34
true,6,1,3,0,false,q,true,true,0.0-2.0-0.37-0.334-3.334,1,1,0,90,false,stim,false,0,63.679999999236315,0,1,0,77921,WMM2,784698,false,true,1186,image-keyboard-response,35
true,6,1,3,0,false,q,true,false,0.0-2.0-0.37-0.335-3.335,1,1,0,90,false,stim,false,0,1663.5100000021048,0,1,0,77921,WMM2,787894,false,false,1189,image-keyboard-response,36
true,6,2,3,1,false,z,true,false,0.0-2.0-0.37-0.336-3.336,1,1,0,68,false,stim,false,1,413.52999999793246,0,1,1,77921,WMM2,789834,false,false,1192,image-keyboard-response,37
true,6,2,3,1,false,z,true,false,0.0-2.0-0.37-0.337-3.337,1,1,0,68,false,stim,false,1,602.9300000008661,0,1,1,77921,WMM2,791962,false,false,1195,image-keyboard-response,38
true,6,1,3,0,false,q,true,false,0.0-2.0-0.37-0.338-3.338,1,1,0,90,false,stim,false,0,367.5650000005262,0,1,0,77921,WMM2,793849,false,false,1198,image-keyboard-response,39
true,6,1,3,2,false,d,true,false,0.0-2.0-0.37-0.339-3.339,1,1,0,90,false,stim,false,0,236.55000000144355,0,0,2,77921,WMM2,795629,false,false,1201,image-keyboard-response,40
true,6,0,3,2,false,d,false,false,0.0-2.0-0.37-0.340-3.340,1,1,0,81,false,stim,true,0,844.0999999984633,0,0,2,77921,WMM2,797999,false,false,1204,image-keyboard-response,41
true,6,0,3,1,false,z,true,false,0.0-2.0-0.37-0.341-3.341,1,1,0,81,false,stim,false,1,409.88499999733176,0,1,1,77921,WMM2,799929,false,false,1207,image-keyboard-response,42
true,6,0,3,2,false,d,false,true,0.0-2.0-0.38-0.342-3.342,1,1,0,81,false,stim,true,0,653.010000001872,0,0,2,77921,WMM2,802110,false,true,1210,image-keyboard-response,43
true,6,0,3,2,false,d,false,false,0.0-2.0-0.38-0.343-3.343,1,1,0,81,false,stim,true,0,1168.8350000004284,0,0,2,77921,WMM2,804817,false,false,1213,image-keyboard-response,44
true,6,0,3,2,false,d,false,true,0.0-2.0-0.38-0.344-3.344,1,1,0,81,false,stim,true,0,563.6699999995762,0,0,2,77921,WMM2,806914,false,true,1216,image-keyboard-response,45
true,6,0,3,0,true,q,false,true,0.0-2.0-0.38-0.345-3.345,1,1,0,81,false,stim,false,0,616.1949999986682,0,1,0,77921,WMM2,809058,false,false,1219,image-keyboard-response,46
true,6,0,3,0,true,q,false,true,0.0-2.0-0.38-0.346-3.346,1,1,0,81,false,stim,false,0,425.9650000021793,0,1,0,77921,WMM2,811014,false,false,1222,image-keyboard-response,47
true,6,0,3,1,false,z,true,false,0.0-2.0-0.38-0.347-3.347,1,1,0,81,false,stim,false,1,514.6749999985332,0,1,1,77921,WMM2,813054,false,false,1225,image-keyboard-response,48
true,6,1,3,1,true,z,false,true,0.0-2.0-0.38-0.348-3.348,1,1,0,90,false,stim,false,1,311.1800000005169,0,1,1,77921,WMM2,814889,false,false,1228,image-keyboard-response,49
true,6,1,3,1,true,z,false,true,0.0-2.0-0.38-0.349-3.349,1,1,0,90,false,stim,false,1,653.2249999982305,0,1,1,77921,WMM2,817072,false,false,1231,image-keyboard-response,50
true,6,1,3,0,false,q,true,false,0.0-2.0-0.38-0.350-3.350,1,1,0,90,false,stim,false,0,448.0499999989988,0,1,0,77921,WMM2,819041,false,false,1234,image-keyboard-response,51
true,6,0,3,1,false,z,true,true,0.0-2.0-0.39-0.351-3.351,1,1,0,81,false,stim,false,1,97.18500000238419,0,1,1,77921,WMM2,820651,false,true,1237,image-keyboard-response,52
true,6,0,3,2,false,d,false,true,0.0-2.0-0.39-0.352-3.352,1,1,0,81,false,stim,true,0,604.3549999995157,0,0,2,77921,WMM2,822771,false,true,1240,image-keyboard-response,53
true,6,0,3,1,false,z,true,false,0.0-2.0-0.39-0.353-3.353,1,1,0,81,false,stim,false,1,576.1949999978533,0,1,1,77921,WMM2,824870,false,false,1243,image-keyboard-response,54
true,6,1,3,0,false,q,true,true,0.0-2.0-0.39-0.354-3.354,1,1,0,90,false,stim,false,0,554.0949999995064,0,1,0,77921,WMM2,826943,false,true,1246,image-keyboard-response,55
true,6,1,3,2,false,d,true,false,0.0-2.0-0.39-0.355-3.355,1,1,0,90,false,stim,false,0,370.48499999952037,0,0,2,77921,WMM2,828836,false,false,1249,image-keyboard-response,56
true,6,0,3,0,true,q,false,true,0.0-2.0-0.39-0.356-3.356,1,1,0,81,false,stim,false,0,478.1199999997625,0,1,0,77921,WMM2,830852,false,false,1252,image-keyboard-response,57
true,6,0,3,1,false,z,true,false,0.0-2.0-0.39-0.357-3.357,1,1,0,81,false,stim,false,1,490.21499999798834,0,1,1,77921,WMM2,832874,false,false,1255,image-keyboard-response,58
true,6,1,3,0,false,q,true,false,0.0-2.0-0.39-0.358-3.358,1,1,0,90,false,stim,false,0,527.429999998305,0,1,0,77921,WMM2,834923,false,false,1258,image-keyboard-response,59
true,6,0,3,2,false,d,false,false,0.0-2.0-0.39-0.359-3.359,1,1,0,81,false,stim,true,0,7.674999997136183,0,0,2,77921,WMM2,836459,false,false,1261,image-keyboard-response,60
true,7,0,3,0,true,q,false,false,0.0-2.0-0.40-0.360-3.360,1,1,0,81,true,stim,false,0,823.5700000004144,0,1,0,77921,WMM2,838820,false,true,1264,image-keyboard-response,1
false,7,-1,3,0,false,q,true,false,0.0-2.0-0.40-0.361-3.361,1,1,0,,false,stim,false,0,,0,1,0,77921,WMM2,843354,false,false,1267,image-keyboard-response,2
false,7,-1,3,1,false,z,true,true,0.0-2.0-0.40-0.362-3.362,1,1,0,,false,stim,false,2,,0,0,2,77921,WMM2,847889,false,true,1270,image-keyboard-response,3
true,7,0,3,1,false,z,true,false,0.0-2.0-0.40-0.363-3.363,1,1,0,81,false,stim,false,2,436.32500000239816,0,0,2,77921,WMM2,849836,false,false,1273,image-keyboard-response,4
true,7,1,3,1,true,z,false,false,0.0-2.0-0.40-0.364-3.364,1,1,0,90,false,stim,false,1,799.4250000010943,0,1,1,77921,WMM2,852156,false,true,1276,image-keyboard-response,5
true,7,2,3,0,false,q,true,false,0.0-2.0-0.40-0.365-3.365,1,1,0,68,false,stim,false,0,304.7950000000419,0,1,0,77921,WMM2,853980,false,false,1279,image-keyboard-response,6
true,7,0,3,1,false,z,true,false,0.0-2.0-0.40-0.366-3.366,1,1,0,81,false,stim,false,2,526.7449999992969,0,0,2,77921,WMM2,856041,false,false,1282,image-keyboard-response,7
true,7,1,3,1,true,z,false,true,0.0-2.0-0.40-0.367-3.367,1,1,0,90,false,stim,false,1,431.5950000018347,0,1,1,77921,WMM2,857988,false,false,1285,image-keyboard-response,8
true,7,0,3,1,false,z,true,false,0.0-2.0-0.40-0.368-3.368,1,1,0,81,false,stim,false,1,363.6000000005588,0,1,1,77921,WMM2,859888,false,false,1288,image-keyboard-response,9
true,7,0,3,1,false,z,true,false,0.0-2.0-0.41-0.369-3.369,1,1,0,81,false,stim,false,2,29.334999999264255,0,0,2,77921,WMM2,861439,false,false,1291,image-keyboard-response,10
true,7,2,3,1,false,z,false,false,0.0-2.0-0.41-0.370-3.370,1,1,0,68,false,stim,true,2,168.3000000010943,0,0,2,77921,WMM2,863135,false,false,1294,image-keyboard-response,11
true,7,1,3,0,false,q,true,false,0.0-2.0-0.41-0.371-3.371,1,1,0,90,false,stim,false,0,319.405000002007,0,1,0,77921,WMM2,864987,false,false,1297,image-keyboard-response,12
true,7,0,3,1,false,z,true,true,0.0-2.0-0.41-0.372-3.372,1,1,0,81,false,stim,false,1,405.7600000014063,0,1,1,77921,WMM2,866922,false,true,1300,image-keyboard-response,13
true,7,0,3,0,true,q,false,false,0.0-2.0-0.41-0.373-3.373,1,1,0,81,false,stim,false,0,567.1999999976251,0,1,0,77921,WMM2,869043,false,true,1303,image-keyboard-response,14
true,7,1,3,0,false,q,true,false,0.0-2.0-0.41-0.374-3.374,1,1,0,90,false,stim,false,0,493.81499999796506,0,1,0,77921,WMM2,871045,false,false,1306,image-keyboard-response,15
true,7,0,3,1,false,z,true,true,0.0-2.0-0.41-0.375-3.375,1,1,0,81,false,stim,false,1,454.42000000178814,0,1,1,77921,WMM2,873021,false,true,1309,image-keyboard-response,16
true,7,0,3,1,false,z,true,false,0.0-2.0-0.41-0.376-3.376,1,1,0,81,false,stim,false,1,371.06499999936204,0,1,1,77921,WMM2,874906,false,false,1312,image-keyboard-response,17
true,7,1,3,1,true,z,false,true,0.0-2.0-0.41-0.377-3.377,1,1,0,90,false,stim,false,2,614.9049999985145,0,0,2,77921,WMM2,877057,false,false,1315,image-keyboard-response,18
true,7,1,3,1,true,z,false,true,0.0-2.0-0.42-0.378-3.378,1,1,0,90,false,stim,false,1,524.6899999983143,0,1,1,77921,WMM2,879114,false,false,1318,image-keyboard-response,19
true,7,1,3,1,true,z,false,false,0.0-2.0-0.42-0.379-3.379,1,1,0,90,false,stim,false,1,575.4549999984447,0,1,1,77921,WMM2,881208,false,true,1321,image-keyboard-response,20
true,7,0,3,0,true,q,false,true,0.0-2.0-0.42-0.380-3.380,1,1,0,81,false,stim,false,0,401.5700000018114,0,1,0,77921,WMM2,883141,false,false,1324,image-keyboard-response,21
true,7,0,3,1,false,z,true,false,0.0-2.0-0.42-0.381-3.381,1,1,0,81,false,stim,false,2,392.0800000014715,0,0,2,77921,WMM2,885066,false,false,1327,image-keyboard-response,22
true,7,1,3,1,true,z,false,true,0.0-2.0-0.42-0.382-3.382,1,1,0,90,false,stim,false,2,860.6450000006007,0,0,2,77921,WMM2,887457,false,false,1330,image-keyboard-response,23
true,7,1,3,1,true,z,false,true,0.0-2.0-0.42-0.383-3.383,1,1,0,90,false,stim,false,2,723.4600000011269,0,0,2,77921,WMM2,889707,false,false,1333,image-keyboard-response,24
true,7,1,3,0,false,q,true,false,0.0-2.0-0.42-0.384-3.384,1,1,0,90,false,stim,false,0,306.66500000003725,0,1,0,77921,WMM2,891534,false,false,1336,image-keyboard-response,25
true,7,0,3,1,false,z,true,false,0.0-2.0-0.42-0.385-3.385,1,1,0,81,false,stim,false,1,459.60999999800697,0,1,1,77921,WMM2,893514,false,false,1339,image-keyboard-response,26
true,7,1,3,0,false,q,true,false,0.0-2.0-0.42-0.386-3.386,1,1,0,90,false,stim,false,0,586.2099999976344,0,1,0,77921,WMM2,895617,false,false,1342,image-keyboard-response,27
true,7,0,3,0,true,q,false,false,0.0-2.0-0.43-0.387-3.387,1,1,0,81,false,stim,false,0,541.7500000002328,0,1,0,77921,WMM2,897683,false,true,1345,image-keyboard-response,28
true,7,1,3,1,true,z,false,true,0.0-2.0-0.43-0.388-3.388,1,1,0,90,false,stim,false,2,501.73500000173226,0,0,2,77921,WMM2,899720,false,false,1348,image-keyboard-response,29
true,7,1,3,0,false,q,true,false,0.0-2.0-0.43-0.389-3.389,1,1,0,90,false,stim,false,0,673.7849999991013,0,1,0,77921,WMM2,901920,false,false,1351,image-keyboard-response,30
true,7,0,3,1,false,z,true,false,0.0-2.0-0.43-0.390-3.390,1,1,0,81,false,stim,false,1,86.98999999975786,0,1,1,77921,WMM2,903547,false,false,1354,image-keyboard-response,31
true,7,1,3,1,true,z,false,true,0.0-2.0-0.43-0.391-3.391,1,1,0,90,false,stim,false,2,1025.7499999970896,0,0,2,77921,WMM2,906092,false,false,1357,image-keyboard-response,32
true,7,1,3,1,true,z,false,false,0.0-2.0-0.43-0.392-3.392,1,1,0,90,false,stim,false,1,551.1400000031572,0,1,1,77921,WMM2,908174,false,true,1360,image-keyboard-response,33
true,7,0,3,0,true,q,false,true,0.0-2.0-0.43-0.393-3.393,1,1,0,81,false,stim,false,0,883.5950000029989,0,1,0,77921,WMM2,910594,false,false,1363,image-keyboard-response,34
true,7,0,3,1,false,z,true,false,0.0-2.0-0.43-0.394-3.394,1,1,0,81,false,stim,false,2,810.5699999978533,0,0,2,77921,WMM2,912929,false,false,1366,image-keyboard-response,35
true,7,1,3,1,true,z,false,false,0.0-2.0-0.43-0.395-3.395,1,1,0,90,false,stim,false,1,397.87000000069384,0,1,1,77921,WMM2,914859,false,true,1369,image-keyboard-response,36
true,7,1,3,0,false,q,true,true,0.0-2.0-0.44-0.396-3.396,1,1,0,90,false,stim,false,0,1053.2749999985099,0,1,0,77921,WMM2,917444,false,true,1372,image-keyboard-response,37
true,7,0,3,1,false,z,true,false,0.0-2.0-0.44-0.397-3.397,1,1,0,81,false,stim,false,1,238.3349999981001,0,1,1,77921,WMM2,919208,false,false,1375,image-keyboard-response,38
true,7,1,3,1,true,z,false,true,0.0-2.0-0.44-0.398-3.398,1,1,0,90,false,stim,false,2,5.2899999973597005,0,0,2,77921,WMM2,920744,false,false,1378,image-keyboard-response,39
true,7,1,3,1,true,z,false,false,0.0-2.0-0.44-0.399-3.399,1,1,0,90,false,stim,false,2,113.81999999866821,0,0,2,77921,WMM2,922383,false,true,1381,image-keyboard-response,40
true,7,1,3,0,false,q,true,false,0.0-2.0-0.44-0.400-3.400,1,1,0,90,false,stim,false,0,225.77499999897555,0,1,0,77921,WMM2,924153,false,false,1384,image-keyboard-response,41
true,7,1,3,0,false,q,true,false,0.0-2.0-0.44-0.401-3.401,1,1,0,90,false,stim,false,0,601.0099999984959,0,1,0,77921,WMM2,926289,false,false,1387,image-keyboard-response,42
true,7,0,3,1,false,z,true,false,0.0-2.0-0.44-0.402-3.402,1,1,0,81,false,stim,false,2,1259.589999997872,0,0,2,77921,WMM2,929069,false,false,1390,image-keyboard-response,43
true,7,0,3,1,false,z,true,false,0.0-2.0-0.44-0.403-3.403,1,1,0,81,false,stim,false,1,454.42499999993015,0,1,1,77921,WMM2,931053,false,false,1393,image-keyboard-response,44
true,7,0,3,1,false,z,true,true,0.0-2.0-0.44-0.404-3.404,1,1,0,81,false,stim,false,1,481.5900000031106,0,1,1,77921,WMM2,933061,false,true,1396,image-keyboard-response,45
true,7,0,3,1,false,z,true,true,0.0-2.0-0.45-0.405-3.405,1,1,0,81,false,stim,false,2,445.08999999740627,0,0,2,77921,WMM2,935036,false,true,1399,image-keyboard-response,46
true,7,0,3,1,false,z,true,false,0.0-2.0-0.45-0.406-3.406,1,1,0,81,false,stim,false,1,609.2800000004936,0,1,1,77921,WMM2,937187,false,false,1402,image-keyboard-response,47
true,7,1,3,1,true,z,false,true,0.0-2.0-0.45-0.407-3.407,1,1,0,90,false,stim,false,2,350.14000000222586,0,0,2,77921,WMM2,939067,false,false,1405,image-keyboard-response,48
true,7,1,3,1,true,z,false,true,0.0-2.0-0.45-0.408-3.408,1,1,0,90,false,stim,false,1,339.879999999539,0,1,1,77921,WMM2,940928,false,false,1408,image-keyboard-response,49
true,7,1,3,1,true,z,false,true,0.0-2.0-0.45-0.409-3.409,1,1,0,90,false,stim,false,2,887.0099999986123,0,0,2,77921,WMM2,943349,false,false,1411,image-keyboard-response,50
true,7,1,3,0,false,q,true,false,0.0-2.0-0.45-0.410-3.410,1,1,0,90,false,stim,false,0,656.6299999977928,0,0,0,77921,WMM2,945540,false,false,1414,image-keyboard-response,51
true,7,2,3,0,false,q,true,false,0.0-2.0-0.45-0.411-3.411,1,1,0,68,false,stim,false,0,486.0599999993574,0,0,0,77921,WMM2,947550,false,false,1417,image-keyboard-response,52
true,7,2,3,1,false,z,true,false,0.0-2.0-0.45-0.412-3.412,1,1,0,68,false,stim,false,1,618.7100000024075,0,0,1,77921,WMM2,949694,false,false,1420,image-keyboard-response,53
true,7,0,3,0,true,q,false,true,0.0-2.0-0.45-0.413-3.413,1,1,0,81,false,stim,false,0,344.9299999992363,0,0,0,77921,WMM2,951563,false,false,1423,image-keyboard-response,54
true,7,0,3,1,false,z,true,false,0.0-2.0-0.46-0.414-3.414,1,1,0,81,false,stim,false,2,290.42499999923166,0,1,2,77921,WMM2,953368,false,false,1426,image-keyboard-response,55
true,7,1,3,0,false,q,true,false,0.0-2.0-0.46-0.415-3.415,1,1,0,90,false,stim,false,0,337.0099999991944,0,0,0,77921,WMM2,955240,false,false,1429,image-keyboard-response,56
true,7,1,3,1,true,z,false,true,0.0-2.0-0.46-0.416-3.416,1,1,0,90,false,stim,false,1,464.81000000122003,0,0,1,77921,WMM2,957233,false,false,1432,image-keyboard-response,57
true,7,0,3,0,true,q,false,true,0.0-2.0-0.46-0.417-3.417,1,1,0,81,false,stim,false,0,1129.545000003418,0,0,0,77921,WMM2,959883,false,false,1435,image-keyboard-response,58
true,7,1,3,1,true,z,false,true,0.0-2.0-0.46-0.418-3.418,1,1,0,90,false,stim,false,1,710.2050000029849,0,0,1,77921,WMM2,962115,false,false,1438,image-keyboard-response,59
true,7,2,3,1,false,z,false,false,0.0-2.0-0.46-0.419-3.419,1,1,0,68,false,stim,true,2,1073.6350000007078,0,1,2,77921,WMM2,964716,false,false,1441,image-keyboard-response,60
true,8,1,1,2,false,d,true,false,0.0-2.0-0.46-0.420-3.420,0,0,1,90,true,stim,false,0,794.3699999996461,0,0,0,77921,WMM2,967040,false,false,1444,image-keyboard-response,1
true,8,2,1,1,false,z,true,false,0.0-2.0-0.46-0.421-3.421,0,0,1,68,false,stim,false,1,955.6750000010943,0,1,2,77921,WMM2,969510,false,false,1447,image-keyboard-response,2
true,8,1,1,2,false,d,false,false,0.0-2.0-0.46-0.422-3.422,0,0,1,90,false,stim,true,1,1363.9599999986822,0,0,1,77921,WMM2,972400,false,false,1450,image-keyboard-response,3
true,8,0,1,2,false,d,false,false,0.0-2.0-0.47-0.423-3.423,0,0,1,81,false,stim,true,0,1749.980000000447,0,0,0,77921,WMM2,975687,false,false,1453,image-keyboard-response,4
true,8,2,1,1,false,z,true,false,0.0-2.0-0.47-0.424-3.424,0,0,1,68,false,stim,false,1,1570.2849999979371,0,1,2,77921,WMM2,978789,false,false,1456,image-keyboard-response,5
true,8,0,1,1,false,z,true,false,0.0-2.0-0.47-0.425-3.425,0,0,1,81,false,stim,false,1,761.8750000001164,0,1,2,77921,WMM2,981081,false,false,1459,image-keyboard-response,6
true,8,1,1,2,false,d,false,false,0.0-2.0-0.47-0.426-3.426,0,0,1,90,false,stim,true,1,848.7999999998137,0,0,1,77921,WMM2,983456,false,false,1462,image-keyboard-response,7
true,8,0,1,1,false,z,true,false,0.0-2.0-0.47-0.427-3.427,0,0,1,81,false,stim,false,1,436.90499999863096,0,1,2,77921,WMM2,985412,false,false,1465,image-keyboard-response,8
true,8,2,1,2,true,d,false,false,0.0-2.0-0.47-0.428-3.428,0,0,1,68,false,stim,false,1,503.6150000015041,0,0,1,77921,WMM2,987455,false,true,1468,image-keyboard-response,9
true,8,1,1,2,false,d,true,false,0.0-2.0-0.47-0.429-3.429,0,0,1,90,false,stim,false,0,477.8699999987148,0,0,0,77921,WMM2,989457,false,false,1471,image-keyboard-response,10
true,8,0,1,2,false,d,true,false,0.0-2.0-0.47-0.430-3.430,0,0,1,81,false,stim,false,1,667.970000002184,0,0,1,77921,WMM2,991641,false,false,1474,image-keyboard-response,11
true,8,0,1,2,false,d,false,false,0.0-2.0-0.47-0.431-3.431,0,0,1,81,false,stim,true,0,345.9849999998696,0,0,0,77921,WMM2,993512,false,false,1477,image-keyboard-response,12
true,8,1,1,2,false,d,true,false,0.0-2.0-0.48-0.432-3.432,0,0,1,90,false,stim,false,0,586.2049999996088,0,0,0,77921,WMM2,995629,false,false,1480,image-keyboard-response,13
true,8,2,1,2,true,d,false,true,0.0-2.0-0.48-0.433-3.433,0,0,1,68,false,stim,false,0,603.0700000009965,0,0,0,77921,WMM2,997757,false,false,1483,image-keyboard-response,14
true,8,2,1,1,false,z,true,false,0.0-2.0-0.48-0.434-3.434,0,0,1,68,false,stim,false,1,193.31999999843538,0,1,2,77921,WMM2,999473,false,false,1486,image-keyboard-response,15
true,8,2,1,2,true,d,false,false,0.0-2.0-0.48-0.435-3.435,0,0,1,68,false,stim,false,0,673.464999999851,0,0,0,77921,WMM2,1001694,false,true,1489,image-keyboard-response,16
true,8,0,1,2,false,d,true,false,0.0-2.0-0.48-0.436-3.436,0,0,1,81,false,stim,false,1,818.7399999988265,0,0,1,77921,WMM2,1004036,false,false,1492,image-keyboard-response,17
true,8,0,1,2,false,d,true,false,0.0-2.0-0.48-0.437-3.437,0,0,1,81,false,stim,false,1,448.56000000075437,0,0,1,77921,WMM2,1006014,false,false,1495,image-keyboard-response,18
true,8,0,1,2,false,d,true,false,0.0-2.0-0.48-0.438-3.438,0,0,1,81,false,stim,false,1,219.53999999829102,0,0,1,77921,WMM2,1007757,false,false,1498,image-keyboard-response,19
true,8,1,1,1,true,z,false,true,0.0-2.0-0.48-0.439-3.439,0,0,1,90,false,stim,false,1,795.4150000005029,0,1,2,77921,WMM2,1010092,false,false,1501,image-keyboard-response,20
true,8,1,1,1,true,z,false,true,0.0-2.0-0.48-0.440-3.440,0,0,1,90,false,stim,false,1,1087.569999999716,0,1,2,77921,WMM2,1012713,false,false,1504,image-keyboard-response,21
true,8,1,1,2,false,d,true,false,0.0-2.0-0.49-0.441-3.441,0,0,1,90,false,stim,false,0,619.1749999998137,0,0,0,77921,WMM2,1014876,false,false,1507,image-keyboard-response,22
true,8,1,1,2,false,d,true,false,0.0-2.0-0.49-0.442-3.442,0,0,1,90,false,stim,false,0,460.36499999905936,0,0,0,77921,WMM2,1016861,false,false,1510,image-keyboard-response,23
true,8,1,1,2,false,d,true,false,0.0-2.0-0.49-0.443-3.443,0,0,1,90,false,stim,false,0,553.6549999997951,0,0,0,77921,WMM2,1018949,false,false,1513,image-keyboard-response,24
true,8,0,1,2,false,d,true,false,0.0-2.0-0.49-0.444-3.444,0,0,1,81,false,stim,false,1,1158.579999999376,0,0,1,77921,WMM2,1021627,false,false,1516,image-keyboard-response,25
true,8,0,1,1,false,z,true,false,0.0-2.0-0.49-0.445-3.445,0,0,1,81,false,stim,false,1,355.65999999747146,0,1,2,77921,WMM2,1023513,false,false,1519,image-keyboard-response,26
true,8,2,1,1,false,z,true,false,0.0-2.0-0.49-0.446-3.446,0,0,1,68,false,stim,false,1,518.5099999981467,0,1,2,77921,WMM2,1025568,false,false,1522,image-keyboard-response,27
true,8,2,1,1,false,z,true,false,0.0-2.0-0.49-0.447-3.447,0,0,1,68,false,stim,false,1,428.33499999681953,0,1,2,77921,WMM2,1027522,false,false,1525,image-keyboard-response,28
true,8,1,1,2,false,d,false,false,0.0-2.0-0.49-0.448-3.448,0,0,1,90,false,stim,true,1,516.3400000019465,0,0,1,77921,WMM2,1029568,false,false,1528,image-keyboard-response,29
true,8,0,1,2,false,d,true,false,0.0-2.0-0.49-0.449-3.449,0,0,1,81,false,stim,false,1,995.6700000002747,0,0,1,77921,WMM2,1032091,false,false,1531,image-keyboard-response,30
true,8,0,1,2,false,d,false,false,0.0-2.0-0.50-0.450-3.450,0,0,1,81,false,stim,true,0,371.40500000165775,0,0,0,77921,WMM2,1033996,false,false,1534,image-keyboard-response,31
true,8,1,1,2,false,d,true,false,0.0-2.0-0.50-0.451-3.451,0,0,1,90,false,stim,false,0,654.1649999999208,0,0,0,77921,WMM2,1036183,false,false,1537,image-keyboard-response,32
true,8,2,1,2,true,d,false,true,0.0-2.0-0.50-0.452-3.452,0,0,1,68,false,stim,false,1,655.1999999975087,0,0,1,77921,WMM2,1038370,false,false,1540,image-keyboard-response,33
true,8,2,1,1,false,z,true,false,0.0-2.0-0.50-0.453-3.453,0,0,1,68,false,stim,false,1,488.0349999984028,0,1,2,77921,WMM2,1040399,false,false,1543,image-keyboard-response,34
true,8,0,1,1,false,z,true,false,0.0-2.0-0.50-0.454-3.454,0,0,1,81,false,stim,false,1,530.6799999998184,0,1,2,77921,WMM2,1042466,false,false,1546,image-keyboard-response,35
true,8,1,1,2,false,d,true,false,0.0-2.0-0.50-0.455-3.455,0,0,1,90,false,stim,false,0,444.82000000064727,0,0,0,77921,WMM2,1044442,false,false,1549,image-keyboard-response,36
true,8,0,1,2,false,d,true,false,0.0-2.0-0.50-0.456-3.456,0,0,1,81,false,stim,false,1,904.8000000002794,0,0,1,77921,WMM2,1046879,false,false,1552,image-keyboard-response,37
true,8,0,1,1,false,z,true,false,0.0-2.0-0.50-0.457-3.457,0,0,1,81,false,stim,false,1,338.7250000014901,0,1,2,77921,WMM2,1048759,false,false,1555,image-keyboard-response,38
true,8,0,1,2,false,d,true,false,0.0-2.0-0.50-0.458-3.458,0,0,1,81,false,stim,false,1,333.0649999990128,0,0,1,77921,WMM2,1050613,false,false,1558,image-keyboard-response,39
true,8,1,1,2,false,d,true,false,0.0-2.0-0.51-0.459-3.459,0,0,1,90,false,stim,false,0,253.49000000278465,0,0,0,77921,WMM2,1052392,false,false,1561,image-keyboard-response,40
true,8,1,1,1,true,z,false,true,0.0-2.0-0.51-0.460-3.460,0,0,1,90,false,stim,false,1,340.4350000019185,0,1,2,77921,WMM2,1054269,false,false,1564,image-keyboard-response,41
true,8,1,1,2,false,d,false,false,0.0-2.0-0.51-0.461-3.461,0,0,1,90,false,stim,true,1,313.98999999882653,0,0,1,77921,WMM2,1056100,false,false,1567,image-keyboard-response,42
true,8,2,1,2,true,d,false,true,0.0-2.0-0.51-0.462-3.462,0,0,1,68,false,stim,false,0,267.6450000000186,0,0,0,77921,WMM2,1057911,false,false,1570,image-keyboard-response,43
true,8,0,1,1,false,z,true,false,0.0-2.0-0.51-0.463-3.463,0,0,1,81,false,stim,false,1,501.8949999974575,0,1,2,77921,WMM2,1059939,false,false,1573,image-keyboard-response,44
true,8,0,1,2,false,d,true,false,0.0-2.0-0.51-0.464-3.464,0,0,1,81,false,stim,false,1,1022.4099999978207,0,0,1,77921,WMM2,1062497,false,false,1576,image-keyboard-response,45
true,8,2,1,2,true,d,false,true,0.0-2.0-0.51-0.465-3.465,0,0,1,68,false,stim,false,0,1640.1150000020862,0,0,0,77921,WMM2,1065656,false,false,1579,image-keyboard-response,46
true,8,2,1,1,false,z,true,false,0.0-2.0-0.51-0.466-3.466,0,0,1,68,false,stim,false,1,1009.4100000024773,0,1,2,77921,WMM2,1068207,false,false,1582,image-keyboard-response,47
true,8,1,1,2,false,d,false,false,0.0-2.0-0.51-0.467-3.467,0,0,1,90,false,stim,true,1,742.6149999990594,0,0,1,77921,WMM2,1070469,false,false,1585,image-keyboard-response,48
true,8,0,1,2,false,d,true,false,0.0-2.0-0.52-0.468-3.468,0,0,1,81,false,stim,false,1,549.865000000922,0,0,1,77921,WMM2,1072536,false,false,1588,image-keyboard-response,49
true,8,0,1,2,false,d,true,false,0.0-2.0-0.52-0.469-3.469,0,0,1,81,false,stim,false,1,570.9199999982957,0,0,1,77921,WMM2,1074639,false,false,1591,image-keyboard-response,50
true,8,0,1,1,false,z,true,false,0.0-2.0-0.52-0.470-3.470,0,0,1,81,false,stim,false,1,439.3600000003353,0,0,2,77921,WMM2,1076619,false,false,1594,image-keyboard-response,51
true,8,1,1,1,true,z,false,true,0.0-2.0-0.52-0.471-3.471,0,0,1,90,false,stim,false,1,380.8949999983888,0,0,2,77921,WMM2,1078530,false,false,1597,image-keyboard-response,52
true,8,1,1,1,true,z,false,true,0.0-2.0-0.52-0.472-3.472,0,0,1,90,false,stim,false,1,192.0250000001397,0,0,2,77921,WMM2,1080241,false,false,1600,image-keyboard-response,53
true,8,1,1,2,false,d,true,false,0.0-2.0-0.52-0.473-3.473,0,0,1,90,false,stim,false,0,234.75499999779277,0,0,0,77921,WMM2,1082031,false,false,1603,image-keyboard-response,54
true,8,2,1,2,true,d,false,true,0.0-2.0-0.52-0.474-3.474,0,0,1,68,false,stim,false,0,429.5199999976903,0,0,0,77921,WMM2,1083991,false,false,1606,image-keyboard-response,55
true,8,2,1,2,true,d,false,true,0.0-2.0-0.52-0.475-3.475,0,0,1,68,false,stim,false,0,1206.180000001099,0,0,0,77921,WMM2,1086723,false,false,1609,image-keyboard-response,56
true,8,2,1,2,true,d,false,true,0.0-2.0-0.52-0.476-3.476,0,0,1,68,false,stim,false,1,529.9449999984354,0,1,1,77921,WMM2,1088782,false,false,1612,image-keyboard-response,57
true,8,2,1,1,false,z,true,false,0.0-2.0-0.53-0.477-3.477,0,0,1,68,false,stim,false,1,434.8549999995157,0,0,2,77921,WMM2,1090749,false,false,1615,image-keyboard-response,58
true,8,0,1,2,false,d,false,false,0.0-2.0-0.53-0.478-3.478,0,0,1,81,false,stim,true,0,517.6799999973737,0,0,0,77921,WMM2,1092791,false,false,1618,image-keyboard-response,59
true,8,0,1,2,false,d,true,false,0.0-2.0-0.53-0.479-3.479,0,0,1,81,false,stim,false,1,294.714999999851,0,1,1,77921,WMM2,1094612,false,false,1621,image-keyboard-response,60
true,9,1,1,2,false,d,false,false,0.0-2.0-0.53-0.480-3.480,0,1,0,90,true,stim,true,1,97.54999999841675,0,0,2,77921,WMM2,1096241,false,false,1624,image-keyboard-response,1
true,9,1,1,0,false,q,true,false,0.0-2.0-0.53-0.481-3.481,0,1,0,90,false,stim,false,2,405.96999999997206,0,0,0,77921,WMM2,1098169,false,false,1627,image-keyboard-response,2
true,9,0,1,2,false,d,true,false,0.0-2.0-0.53-0.482-3.482,0,1,0,81,false,stim,false,2,445.6549999995623,0,1,1,77921,WMM2,1100139,false,false,1630,image-keyboard-response,3
true,9,0,1,0,true,q,false,true,0.0-2.0-0.53-0.483-3.483,0,1,0,81,false,stim,false,2,359.03999999933876,0,0,0,77921,WMM2,1102035,false,false,1633,image-keyboard-response,4
true,9,0,1,2,false,d,true,false,0.0-2.0-0.53-0.484-3.484,0,1,0,81,false,stim,false,2,389.6550000025891,0,1,1,77921,WMM2,1103956,false,false,1636,image-keyboard-response,5
true,9,0,1,2,false,d,true,false,0.0-2.0-0.53-0.485-3.485,0,1,0,81,false,stim,false,1,346.0350000022445,0,0,2,77921,WMM2,1105816,false,false,1639,image-keyboard-response,6
true,9,1,1,2,false,d,false,false,0.0-2.0-0.54-0.486-3.486,0,1,0,90,false,stim,true,1,727.8950000000186,0,0,2,77921,WMM2,1108063,false,false,1642,image-keyboard-response,7
true,9,2,1,0,false,q,false,false,0.0-2.0-0.54-0.487-3.487,0,1,0,68,false,stim,true,2,508.4500000013504,0,0,0,77921,WMM2,1110096,false,false,1645,image-keyboard-response,8
true,9,1,1,0,false,q,true,false,0.0-2.0-0.54-0.488-3.488,0,1,0,90,false,stim,false,2,602.3099999984261,0,0,0,77921,WMM2,1112226,false,false,1648,image-keyboard-response,9
true,9,1,1,2,false,d,true,false,0.0-2.0-0.54-0.489-3.489,0,1,0,90,false,stim,false,2,351.60999999777414,0,1,1,77921,WMM2,1114101,false,false,1651,image-keyboard-response,10
true,9,0,1,2,false,d,true,false,0.0-2.0-0.54-0.490-3.490,0,1,0,81,false,stim,false,1,567.080000000773,0,0,2,77921,WMM2,1116207,false,false,1654,image-keyboard-response,11
true,9,0,1,2,false,d,true,false,0.0-2.0-0.54-0.491-3.491,0,1,0,81,false,stim,false,2,407.69000000017695,0,1,1,77921,WMM2,1118138,false,false,1657,image-keyboard-response,12
true,9,0,1,0,true,q,false,true,0.0-2.0-0.54-0.492-3.492,0,1,0,81,false,stim,false,2,1050.0449999999255,0,0,0,77921,WMM2,1120707,false,false,1660,image-keyboard-response,13
true,9,0,1,2,false,d,true,false,0.0-2.0-0.54-0.493-3.493,0,1,0,81,false,stim,false,2,460.71999999904074,0,1,1,77921,WMM2,1122701,false,false,1663,image-keyboard-response,14
true,9,0,1,2,false,d,true,false,0.0-2.0-0.54-0.494-3.494,0,1,0,81,false,stim,false,1,582.4900000006892,0,0,2,77921,WMM2,1124817,false,false,1666,image-keyboard-response,15
true,9,0,1,2,false,d,true,false,0.0-2.0-0.55-0.495-3.495,0,1,0,81,false,stim,false,2,409.4249999979511,0,1,1,77921,WMM2,1126759,false,false,1669,image-keyboard-response,16
true,9,1,1,0,false,q,true,false,0.0-2.0-0.55-0.496-3.496,0,1,0,90,false,stim,false,2,679.8549999983516,0,0,0,77921,WMM2,1128972,false,false,1672,image-keyboard-response,17
true,9,1,1,0,false,q,true,false,0.0-2.0-0.55-0.497-3.497,0,1,0,90,false,stim,false,2,624.855000001844,0,0,0,77921,WMM2,1131108,false,false,1675,image-keyboard-response,18
true,9,1,1,2,false,d,false,false,0.0-2.0-0.55-0.498-3.498,0,1,0,90,false,stim,true,1,724.1649999998044,0,0,2,77921,WMM2,1133367,false,false,1678,image-keyboard-response,19
true,9,2,1,2,true,d,false,true,0.0-2.0-0.55-0.499-3.499,0,1,0,68,false,stim,false,2,780.3299999977462,0,1,1,77921,WMM2,1135687,false,false,1681,image-keyboard-response,20
true,9,2,1,2,true,d,false,true,0.0-2.0-0.55-0.500-3.500,0,1,0,68,false,stim,false,1,645.7799999988638,0,0,2,77921,WMM2,1137863,false,false,1684,image-keyboard-response,21
true,9,2,1,2,true,d,false,true,0.0-2.0-0.55-0.501-3.501,0,1,0,68,false,stim,false,2,831.364999998128,0,1,1,77921,WMM2,1140226,false,false,1687,image-keyboard-response,22
true,9,2,1,2,true,d,false,true,0.0-2.0-0.55-0.502-3.502,0,1,0,68,false,stim,false,1,406.88999999850057,0,0,2,77921,WMM2,1142150,false,false,1690,image-keyboard-response,23
true,9,2,1,0,false,q,false,false,0.0-2.0-0.55-0.503-3.503,0,1,0,68,false,stim,true,2,419.4500000011176,0,0,0,77921,WMM2,1144102,false,false,1693,image-keyboard-response,24
true,9,1,1,2,false,d,false,false,0.0-2.0-0.56-0.504-3.504,0,1,0,90,false,stim,true,1,495.70500000123866,0,0,2,77921,WMM2,1146138,false,false,1696,image-keyboard-response,25
true,9,0,1,2,false,d,true,true,0.0-2.0-0.56-0.505-3.505,0,1,0,81,false,stim,false,2,582.999999998603,0,1,1,77921,WMM2,1148255,false,true,1699,image-keyboard-response,26
false,9,-1,1,0,false,q,true,false,0.0-2.0-0.56-0.506-3.506,0,1,0,,false,stim,false,2,,0,0,0,77921,WMM2,1152820,false,false,1702,image-keyboard-response,27
true,9,0,1,2,false,d,true,false,0.0-2.0-0.56-0.507-3.507,0,1,0,81,false,stim,false,1,1181.8849999981467,0,0,2,77921,WMM2,1155545,false,false,1705,image-keyboard-response,28
true,9,0,1,2,false,d,true,false,0.0-2.0-0.56-0.508-3.508,0,1,0,81,false,stim,false,2,499.88999999919906,0,1,1,77921,WMM2,1157577,false,false,1708,image-keyboard-response,29
true,9,1,1,0,false,q,true,false,0.0-2.0-0.56-0.509-3.509,0,1,0,90,false,stim,false,2,601.1450000004843,0,0,0,77921,WMM2,1159704,false,false,1711,image-keyboard-response,30
true,9,2,1,2,true,d,false,true,0.0-2.0-0.56-0.510-3.510,0,1,0,68,false,stim,false,1,157.03000000212342,0,0,2,77921,WMM2,1161397,false,false,1714,image-keyboard-response,31
true,9,2,1,2,true,d,false,true,0.0-2.0-0.56-0.511-3.511,0,1,0,68,false,stim,false,2,430.7100000004284,0,1,1,77921,WMM2,1163371,false,false,1717,image-keyboard-response,32
true,9,1,1,0,false,q,true,false,0.0-2.0-0.56-0.512-3.512,0,1,0,90,false,stim,false,2,521.8300000014715,0,0,0,77921,WMM2,1165438,false,false,1720,image-keyboard-response,33
true,9,1,1,0,false,q,true,false,0.0-2.0-0.57-0.513-3.513,0,1,0,90,false,stim,false,2,18.884999997681007,0,0,0,77921,WMM2,1166997,false,false,1723,image-keyboard-response,34
true,9,1,1,2,false,d,true,false,0.0-2.0-0.57-0.514-3.514,0,1,0,90,false,stim,false,2,504.73000000067987,0,1,1,77921,WMM2,1169028,false,false,1726,image-keyboard-response,35
true,9,2,1,0,false,q,false,false,0.0-2.0-0.57-0.515-3.515,0,1,0,68,false,stim,true,2,385.59499999973923,0,0,0,77921,WMM2,1170942,false,false,1729,image-keyboard-response,36
true,9,0,1,2,false,d,true,false,0.0-2.0-0.57-0.516-3.516,0,1,0,81,false,stim,false,1,553.9949999982491,0,0,2,77921,WMM2,1173016,false,false,1732,image-keyboard-response,37
true,9,1,1,2,false,d,true,false,0.0-2.0-0.57-0.517-3.517,0,1,0,90,false,stim,false,2,694.2300000009127,0,1,1,77921,WMM2,1175249,false,false,1735,image-keyboard-response,38
true,9,1,1,2,false,d,false,false,0.0-2.0-0.57-0.518-3.518,0,1,0,90,false,stim,true,1,113.05000000004657,0,0,2,77921,WMM2,1176899,false,false,1738,image-keyboard-response,39
true,9,2,1,0,false,q,false,false,0.0-2.0-0.57-0.519-3.519,0,1,0,68,false,stim,true,2,552.5699999998324,0,0,0,77921,WMM2,1178982,false,false,1741,image-keyboard-response,40
true,9,0,1,2,false,d,true,false,0.0-2.0-0.57-0.520-3.520,0,1,0,81,false,stim,false,2,452.65500000095926,0,1,1,77921,WMM2,1180975,false,false,1744,image-keyboard-response,41
true,9,1,1,2,false,d,false,false,0.0-2.0-0.57-0.521-3.521,0,1,0,90,false,stim,true,1,538.160000000149,0,0,2,77921,WMM2,1183041,false,false,1747,image-keyboard-response,42
true,9,1,1,2,false,d,true,false,0.0-2.0-0.58-0.522-3.522,0,1,0,90,false,stim,false,2,178.3450000002049,0,1,1,77921,WMM2,1184757,false,false,1750,image-keyboard-response,43
true,9,2,1,2,true,d,false,true,0.0-2.0-0.58-0.523-3.523,0,1,0,68,false,stim,false,2,641.8249999987893,0,1,1,77921,WMM2,1186934,false,false,1753,image-keyboard-response,44
true,9,2,1,2,true,d,false,true,0.0-2.0-0.58-0.524-3.524,0,1,0,68,false,stim,false,1,461.2649999980349,0,0,2,77921,WMM2,1188924,false,false,1756,image-keyboard-response,45
true,9,2,1,0,false,q,false,false,0.0-2.0-0.58-0.525-3.525,0,1,0,68,false,stim,true,2,550.579999999376,0,0,0,77921,WMM2,1191009,false,false,1759,image-keyboard-response,46
true,9,1,1,0,false,q,true,false,0.0-2.0-0.58-0.526-3.526,0,1,0,90,false,stim,false,2,586.1000000005588,0,0,0,77921,WMM2,1193121,false,false,1762,image-keyboard-response,47
true,9,0,1,2,false,d,true,true,0.0-2.0-0.58-0.527-3.527,0,1,0,81,false,stim,false,1,1203.0900000028778,0,0,2,77921,WMM2,1195851,false,true,1765,image-keyboard-response,48
true,9,0,1,2,false,d,true,false,0.0-2.0-0.58-0.528-3.528,0,1,0,81,false,stim,false,1,562.1700000010896,0,0,2,77921,WMM2,1197945,false,false,1768,image-keyboard-response,49
true,9,0,1,0,true,q,false,true,0.0-2.0-0.58-0.529-3.529,0,1,0,81,false,stim,false,2,745.4550000003073,0,0,0,77921,WMM2,1200233,false,false,1771,image-keyboard-response,50
true,9,0,1,2,false,d,true,true,0.0-2.0-0.58-0.530-3.530,0,1,0,81,false,stim,false,2,145.80500000016764,0,1,1,77921,WMM2,1201898,false,true,1774,image-keyboard-response,51
true,9,0,1,2,false,d,true,true,0.0-2.0-0.59-0.531-3.531,0,1,0,81,false,stim,false,1,483.42000000039116,0,1,2,77921,WMM2,1203910,false,true,1777,image-keyboard-response,52
true,9,0,1,0,true,q,false,true,0.0-2.0-0.59-0.532-3.532,0,1,0,81,false,stim,false,2,87.93999999761581,0,0,0,77921,WMM2,1205536,false,false,1780,image-keyboard-response,53
true,9,0,1,2,false,d,true,true,0.0-2.0-0.59-0.533-3.533,0,1,0,81,false,stim,false,2,354.26000000024214,0,1,1,77921,WMM2,1207416,false,true,1783,image-keyboard-response,54
true,9,0,1,2,false,d,true,false,0.0-2.0-0.59-0.534-3.534,0,1,0,81,false,stim,false,1,93.77499999757856,0,1,2,77921,WMM2,1209032,false,false,1786,image-keyboard-response,55
true,9,1,1,2,false,d,true,false,0.0-2.0-0.59-0.535-3.535,0,1,0,90,false,stim,false,2,111.34999999916181,0,1,1,77921,WMM2,1210670,false,false,1789,image-keyboard-response,56
true,9,1,1,0,false,q,true,false,0.0-2.0-0.59-0.536-3.536,0,1,0,90,false,stim,false,2,246.71500000124797,0,0,0,77921,WMM2,1212435,false,false,1792,image-keyboard-response,57
true,9,1,1,2,false,d,true,false,0.0-2.0-0.59-0.537-3.537,0,1,0,90,false,stim,false,2,99.44499999983236,0,1,1,77921,WMM2,1214063,false,false,1795,image-keyboard-response,58
true,9,1,1,0,false,q,true,false,0.0-2.0-0.59-0.538-3.538,0,1,0,90,false,stim,false,2,286.1799999990035,0,0,0,77921,WMM2,1215887,false,false,1798,image-keyboard-response,59
true,9,0,1,2,false,d,true,false,0.0-2.0-0.59-0.539-3.539,0,1,0,81,false,stim,false,1,1639.6399999975692,0,1,2,77921,WMM2,1219084,false,false,1801,image-keyboard-response,60
true,10,0,4,2,false,d,true,false,0.0-2.0-0.60-0.540-3.540,0,1,1,81,true,stim,false,2,274.1550000028219,0,1,1,77921,WMM2,1220879,false,false,1804,image-keyboard-response,1
true,10,0,4,0,true,q,false,true,0.0-2.0-0.60-0.541-3.541,0,1,1,81,false,stim,false,0,594.5499999979511,0,0,0,77921,WMM2,1223002,false,false,1807,image-keyboard-response,2
true,10,0,4,2,false,d,true,false,0.0-2.0-0.60-0.542-3.542,0,1,1,81,false,stim,false,2,816.3750000023283,0,1,2,77921,WMM2,1225347,false,false,1810,image-keyboard-response,3
true,10,0,4,0,true,q,false,true,0.0-2.0-0.60-0.543-3.543,0,1,1,81,false,stim,false,0,176.2799999997951,0,0,0,77921,WMM2,1227054,false,false,1813,image-keyboard-response,4
true,10,0,4,2,false,d,true,false,0.0-2.0-0.60-0.544-3.544,0,1,1,81,false,stim,false,2,341.60500000137836,0,1,1,77921,WMM2,1228922,false,false,1816,image-keyboard-response,5
true,10,1,4,2,false,d,true,false,0.0-2.0-0.60-0.545-3.545,0,1,1,90,false,stim,false,2,638.035000000149,0,1,2,77921,WMM2,1231096,false,false,1819,image-keyboard-response,6
true,10,1,4,2,false,d,true,false,0.0-2.0-0.60-0.546-3.546,0,1,1,90,false,stim,false,2,175.87000000290573,0,1,1,77921,WMM2,1232809,false,false,1822,image-keyboard-response,7
true,10,2,4,0,false,q,true,false,0.0-2.0-0.60-0.547-3.547,0,1,1,68,false,stim,false,0,53.6400000017602,0,0,0,77921,WMM2,1234387,false,false,1825,image-keyboard-response,8
true,10,2,4,2,true,d,false,true,0.0-2.0-0.60-0.548-3.548,0,1,1,68,false,stim,false,2,73.1500000001397,0,1,2,77921,WMM2,1235980,false,false,1828,image-keyboard-response,9
true,10,2,4,2,true,d,false,false,0.0-2.0-0.61-0.549-3.549,0,1,1,68,false,stim,false,2,384.80499999783933,0,1,2,77921,WMM2,1237889,false,true,1831,image-keyboard-response,10
true,10,1,4,2,false,d,true,false,0.0-2.0-0.61-0.550-3.550,0,1,1,90,false,stim,false,2,589.4650000007823,0,1,2,77921,WMM2,1240002,false,false,1834,image-keyboard-response,11
true,10,1,4,2,false,d,true,false,0.0-2.0-0.61-0.551-3.551,0,1,1,90,false,stim,false,2,220.97500000032596,0,1,1,77921,WMM2,1241751,false,false,1837,image-keyboard-response,12
true,10,1,4,2,false,d,true,true,0.0-2.0-0.61-0.552-3.552,0,1,1,90,false,stim,false,2,1404.3799999998882,0,1,2,77921,WMM2,1244685,false,true,1840,image-keyboard-response,13
true,10,1,4,0,false,q,true,false,0.0-2.0-0.61-0.553-3.553,0,1,1,90,false,stim,false,0,285.14999999967404,0,0,0,77921,WMM2,1246499,false,false,1843,image-keyboard-response,14
true,10,2,4,0,false,q,true,true,0.0-2.0-0.61-0.554-3.554,0,1,1,68,false,stim,false,0,411.3499999984633,0,0,0,77921,WMM2,1248433,false,true,1846,image-keyboard-response,15
true,10,1,4,2,false,d,true,true,0.0-2.0-0.61-0.555-3.555,0,1,1,90,false,stim,false,2,909.2849999978207,0,1,1,77921,WMM2,1250858,false,true,1849,image-keyboard-response,16
true,10,2,4,0,false,q,true,false,0.0-2.0-0.61-0.556-3.556,0,1,1,68,false,stim,false,0,348.2499999990687,0,0,0,77921,WMM2,1252743,false,false,1852,image-keyboard-response,17
true,10,1,4,2,false,d,true,false,0.0-2.0-0.61-0.557-3.557,0,1,1,90,false,stim,false,2,28.65999999991618,0,1,1,77921,WMM2,1254298,false,false,1855,image-keyboard-response,18
true,10,0,4,0,true,q,false,true,0.0-2.0-0.62-0.558-3.558,0,1,1,81,false,stim,false,0,22.37500000046566,0,0,0,77921,WMM2,1255844,false,false,1858,image-keyboard-response,19
true,10,0,4,2,false,d,true,false,0.0-2.0-0.62-0.559-3.559,0,1,1,81,false,stim,false,2,331.6400000003632,0,1,1,77921,WMM2,1257701,false,false,1861,image-keyboard-response,20
true,10,1,4,0,false,q,true,false,0.0-2.0-0.62-0.560-3.560,0,1,1,90,false,stim,false,0,259.5050000017509,0,0,0,77921,WMM2,1259489,false,false,1864,image-keyboard-response,21
true,10,2,4,0,false,q,true,false,0.0-2.0-0.62-0.561-3.561,0,1,1,68,false,stim,false,0,301.8449999981094,0,0,0,77921,WMM2,1261324,false,false,1867,image-keyboard-response,22
true,10,2,4,2,true,d,false,true,0.0-2.0-0.62-0.562-3.562,0,1,1,68,false,stim,false,2,521.2199999988079,0,1,1,77921,WMM2,1263378,false,false,1870,image-keyboard-response,23
true,10,1,4,2,false,d,true,false,0.0-2.0-0.62-0.563-3.563,0,1,1,90,false,stim,false,2,462.8249999987893,0,1,2,77921,WMM2,1265385,false,false,1873,image-keyboard-response,24
true,10,1,4,2,false,d,true,false,0.0-2.0-0.62-0.564-3.564,0,1,1,90,false,stim,false,2,242.75499999942258,0,1,2,77921,WMM2,1267173,false,false,1876,image-keyboard-response,25
true,10,0,4,2,false,d,true,false,0.0-2.0-0.62-0.565-3.565,0,1,1,81,false,stim,false,2,323.34500000067055,0,1,1,77921,WMM2,1269028,false,false,1879,image-keyboard-response,26
true,10,0,4,2,false,d,true,false,0.0-2.0-0.62-0.566-3.566,0,1,1,81,false,stim,false,2,324.1200000010431,0,1,2,77921,WMM2,1270887,false,false,1882,image-keyboard-response,27
true,10,0,4,2,false,d,true,false,0.0-2.0-0.63-0.567-3.567,0,1,1,81,false,stim,false,2,341.9250000005122,0,1,1,77921,WMM2,1272755,false,false,1885,image-keyboard-response,28
true,10,2,4,0,false,q,true,false,0.0-2.0-0.63-0.568-3.568,0,1,1,68,false,stim,false,0,470.6299999996554,0,0,0,77921,WMM2,1274756,false,false,1888,image-keyboard-response,29
true,10,1,4,2,false,d,true,false,0.0-2.0-0.63-0.569-3.569,0,1,1,90,false,stim,false,2,2.585000002058223,0,1,2,77921,WMM2,1276285,false,false,1891,image-keyboard-response,30
true,10,1,4,2,false,d,true,false,0.0-2.0-0.63-0.570-3.570,0,1,1,90,false,stim,false,2,39.90999999968335,0,1,1,77921,WMM2,1277855,false,false,1894,image-keyboard-response,31
true,10,0,4,0,true,q,false,true,0.0-2.0-0.63-0.571-3.571,0,1,1,81,false,stim,false,0,75.7850000008475,0,0,0,77921,WMM2,1279457,false,false,1897,image-keyboard-response,32
true,10,0,4,0,true,q,false,true,0.0-2.0-0.63-0.572-3.572,0,1,1,81,false,stim,false,0,378.035000001546,0,0,0,77921,WMM2,1281368,false,false,1900,image-keyboard-response,33
true,10,2,4,2,true,d,false,true,0.0-2.0-0.63-0.573-3.573,0,1,1,68,false,stim,false,2,652.39500000095,0,1,1,77921,WMM2,1283585,false,false,1903,image-keyboard-response,34
true,10,0,4,2,false,d,true,false,0.0-2.0-0.63-0.574-3.574,0,1,1,81,false,stim,false,2,944.3299999984447,0,1,2,77921,WMM2,1286057,false,false,1906,image-keyboard-response,35
true,10,2,4,2,true,d,false,false,0.0-2.0-0.63-0.575-3.575,0,1,1,68,false,stim,false,2,699.5800000005402,0,1,2,77921,WMM2,1288295,false,true,1909,image-keyboard-response,36
true,10,1,4,0,false,q,true,false,0.0-2.0-0.64-0.576-3.576,0,1,1,90,false,stim,false,0,422.02499999967404,0,0,0,77921,WMM2,1290252,false,false,1912,image-keyboard-response,37
true,10,0,4,0,true,q,false,true,0.0-2.0-0.64-0.577-3.577,0,1,1,81,false,stim,false,0,483.16500000143424,0,0,0,77921,WMM2,1292257,false,false,1915,image-keyboard-response,38
true,10,0,4,2,false,d,true,false,0.0-2.0-0.64-0.578-3.578,0,1,1,81,false,stim,false,2,534.3949999986216,0,1,1,77921,WMM2,1294318,false,false,1918,image-keyboard-response,39
true,10,1,4,2,false,d,true,true,0.0-2.0-0.64-0.579-3.579,0,1,1,90,false,stim,false,2,740.3999999987427,0,1,2,77921,WMM2,1296586,false,true,1921,image-keyboard-response,40
true,10,1,4,2,false,d,true,false,0.0-2.0-0.64-0.580-3.580,0,1,1,90,false,stim,false,2,407.4749999998603,0,1,2,77921,WMM2,1298518,false,false,1924,image-keyboard-response,41
true,10,0,4,0,true,q,false,true,0.0-2.0-0.64-0.581-3.581,0,1,1,81,false,stim,false,0,442.8249999983236,0,0,0,77921,WMM2,1300480,false,false,1927,image-keyboard-response,42
true,10,0,4,2,false,d,true,false,0.0-2.0-0.64-0.582-3.582,0,1,1,81,false,stim,false,2,687.2199999997392,0,1,1,77921,WMM2,1302701,false,false,1930,image-keyboard-response,43
true,10,1,4,2,false,d,true,false,0.0-2.0-0.64-0.583-3.583,0,1,1,90,false,stim,false,2,181.205000000773,0,1,2,77921,WMM2,1304407,false,false,1933,image-keyboard-response,44
true,10,1,4,2,false,d,true,false,0.0-2.0-0.64-0.584-3.584,0,1,1,90,false,stim,false,2,131.025000002468,0,1,1,77921,WMM2,1306082,false,false,1936,image-keyboard-response,45
true,10,1,4,2,false,d,true,true,0.0-2.0-0.65-0.585-3.585,0,1,1,90,false,stim,false,2,168.31000000075437,0,1,1,77921,WMM2,1307786,false,true,1939,image-keyboard-response,46
