answered,blockNum,choice,condition,corResp,correct,correct_response,explo,fb,internal_node_id,isStable_1,isStable_2,isStable_3,key_press,newBlock,part,persev,persevResp,rt,sessNum,stableAS,stimulus,subject,task,time_elapsed,training,trap,trial_index,trial_type,trialsInBlock
true,1,0,0,0,true,q,false,true,0.0-2.0-0.0-0.0-3.0,0,0,0,81,true,stim,false,-1,1021,2,0,1,78689,WMM1,157088,false,false,88,image-keyboard-response,1
true,1,1,0,1,true,z,false,true,0.0-2.0-0.0-0.1-3.1,0,0,0,90,false,stim,false,-1,1382,2,0,2,78689,WMM1,159999,false,false,91,image-keyboard-response,2
true,1,1,0,0,false,q,true,false,0.0-2.0-0.0-0.2-3.2,0,0,0,90,false,stim,false,-1,1282,2,0,0,78689,WMM1,162819,false,false,94,image-keyboard-response,3
true,1,2,0,0,false,q,true,false,0.0-2.0-0.0-0.3-3.3,0,0,0,68,false,stim,false,-1,721,2,0,0,78689,WMM1,165069,false,false,97,image-keyboard-response,4
true,1,0,0,0,true,q,false,true,0.0-2.0-0.0-0.4-3.4,0,0,0,81,false,stim,false,-1,1171,2,0,1,78689,WMM1,167779,false,false,100,image-keyboard-response,5
true,1,0,0,0,true,q,false,true,0.0-2.0-0.0-0.5-3.5,0,0,0,81,false,stim,false,-1,949,2,0,1,78689,WMM1,170267,false,false,103,image-keyboard-response,6
true,1,1,0,1,true,z,false,true,0.0-2.0-0.0-0.6-3.6,0,0,0,90,false,stim,false,-1,697,2,0,2,78689,WMM1,172495,false,false,106,image-keyboard-response,7
true,1,1,0,1,true,z,false,true,0.0-2.0-0.0-0.7-3.7,0,0,0,90,false,stim,false,-1,912,2,0,2,78689,WMM1,174949,false,false,109,image-keyboard-response,8
true,1,1,0,0,false,q,true,false,0.0-2.0-0.0-0.8-3.8,0,0,0,90,false,stim,false,-1,1070,2,0,0,78689,WMM1,177539,false,false,112,image-keyboard-response,9
true,1,0,0,0,true,q,false,true,0.0-2.0-0.1-0.9-3.9,0,0,0,81,false,stim,false,-1,1351,2,0,1,78689,WMM1,180430,false,false,115,image-keyboard-response,10
true,1,0,0,0,true,q,false,true,0.0-2.0-0.1-0.10-3.10,0,0,0,81,false,stim,false,-1,610,2,0,1,78689,WMM1,182568,false,false,118,image-keyboard-response,11
true,1,1,0,1,true,z,false,true,0.0-2.0-0.1-0.11-3.11,0,0,0,90,false,stim,false,-1,1121,2,0,2,78689,WMM1,185219,false,false,121,image-keyboard-response,12
true,1,0,0,0,true,q,false,true,0.0-2.0-0.1-0.12-3.12,0,0,0,81,false,stim,false,-1,1285,2,0,0,78689,WMM1,188032,false,false,124,image-keyboard-response,13
true,1,0,0,0,true,q,false,true,0.0-2.0-0.1-0.13-3.13,0,0,0,81,false,stim,false,-1,483,2,0,0,78689,WMM1,190051,false,false,127,image-keyboard-response,14
true,1,1,0,1,true,z,false,true,0.0-2.0-0.1-0.14-3.14,0,0,0,90,false,stim,false,-1,1252,2,0,2,78689,WMM1,192839,false,false,130,image-keyboard-response,15
true,1,1,0,1,true,z,false,true,0.0-2.0-0.1-0.15-3.15,0,0,0,90,false,stim,false,-1,827,2,0,2,78689,WMM1,195194,false,false,133,image-keyboard-response,16
true,1,0,0,0,true,q,false,true,0.0-2.0-0.1-0.16-3.16,0,0,0,81,false,stim,false,-1,937,2,0,0,78689,WMM1,197664,false,false,136,image-keyboard-response,17
true,1,0,0,0,true,q,false,false,0.0-2.0-0.1-0.17-3.17,0,0,0,81,false,stim,false,-1,1449,2,0,1,78689,WMM1,200656,false,true,139,image-keyboard-response,18
true,1,0,0,0,true,q,false,true,0.0-2.0-0.2-0.18-3.18,0,0,0,81,false,stim,false,-1,657,2,0,1,78689,WMM1,202855,false,false,142,image-keyboard-response,19
true,1,0,0,0,true,q,false,true,0.0-2.0-0.2-0.19-3.19,0,0,0,81,false,stim,false,-1,502,2,0,1,78689,WMM1,204900,false,false,145,image-keyboard-response,20
true,1,0,0,0,true,q,false,true,0.0-2.0-0.2-0.20-3.20,0,0,0,81,false,stim,false,-1,2411,2,0,0,78689,WMM1,208848,false,false,148,image-keyboard-response,21
true,1,0,0,0,true,q,false,true,0.0-2.0-0.2-0.21-3.21,0,0,0,81,false,stim,false,-1,647,2,0,0,78689,WMM1,211024,false,false,151,image-keyboard-response,22
true,1,0,0,0,true,q,false,true,0.0-2.0-0.2-0.22-3.22,0,0,0,81,false,stim,false,-1,523,2,0,0,78689,WMM1,213071,false,false,154,image-keyboard-response,23
true,1,1,0,1,true,z,false,true,0.0-2.0-0.2-0.23-3.23,0,0,0,90,false,stim,false,-1,1893,2,1,2,78689,WMM1,216501,false,false,157,image-keyboard-response,24
true,1,0,0,0,true,q,false,true,0.0-2.0-0.2-0.24-3.24,0,0,0,81,false,stim,false,-1,1137,2,0,1,78689,WMM1,219164,false,false,160,image-keyboard-response,25
true,1,1,0,1,true,z,false,true,0.0-2.0-0.2-0.25-3.25,0,0,0,90,false,stim,false,-1,1329,2,1,2,78689,WMM1,222027,false,false,163,image-keyboard-response,26
true,1,1,0,1,true,z,false,true,0.0-2.0-0.2-0.26-3.26,0,0,0,90,false,stim,false,-1,602,2,1,2,78689,WMM1,224159,false,false,166,image-keyboard-response,27
true,1,1,0,0,false,q,true,false,0.0-2.0-0.3-0.27-3.27,0,0,0,90,false,stim,false,-1,2572,2,0,0,78689,WMM1,228269,false,false,169,image-keyboard-response,28
true,1,0,0,0,true,q,false,true,0.0-2.0-0.3-0.28-3.28,0,0,0,81,false,stim,false,-1,2232,2,0,0,78689,WMM1,232039,false,false,172,image-keyboard-response,29
true,1,0,0,0,true,q,false,true,0.0-2.0-0.3-0.29-3.29,0,0,0,81,false,stim,false,-1,1276,2,0,1,78689,WMM1,234843,false,false,175,image-keyboard-response,30
true,2,1,3,1,true,z,false,true,0.0-2.0-0.3-0.30-3.30,0,0,1,90,true,stim,false,1,2010,2,1,2,78689,WMM1,238388,false,false,178,image-keyboard-response,1
true,2,1,3,1,true,z,false,true,0.0-2.0-0.3-0.31-3.31,0,0,1,90,false,stim,false,1,432,2,1,2,78689,WMM1,240349,false,false,181,image-keyboard-response,2
true,2,0,3,2,false,d,false,false,0.0-2.0-0.3-0.32-3.32,0,0,1,81,false,stim,true,0,448,2,0,1,78689,WMM1,242336,false,false,184,image-keyboard-response,3
true,2,0,3,2,false,d,false,false,0.0-2.0-0.3-0.33-3.33,0,0,1,81,false,stim,true,0,814,2,0,1,78689,WMM1,244682,false,false,187,image-keyboard-response,4
true,2,1,3,1,true,z,false,true,0.0-2.0-0.3-0.34-3.34,0,0,1,90,false,stim,false,1,1788,2,1,2,78689,WMM1,248005,false,false,190,image-keyboard-response,5
true,2,0,3,1,false,z,false,false,0.0-2.0-0.3-0.35-3.35,0,0,1,81,false,stim,true,0,979,2,0,0,78689,WMM1,250516,false,false,193,image-keyboard-response,6
true,2,0,3,2,false,d,false,false,0.0-2.0-0.4-0.36-3.36,0,0,1,81,false,stim,true,0,1391,2,0,1,78689,WMM1,253438,false,false,196,image-keyboard-response,7
true,2,2,3,1,false,z,true,false,0.0-2.0-0.4-0.37-3.37,0,0,1,68,false,stim,false,1,1455,2,1,2,78689,WMM1,256423,false,false,199,image-keyboard-response,8
true,2,1,3,2,false,d,true,false,0.0-2.0-0.4-0.38-3.38,0,0,1,90,false,stim,false,0,1155,2,0,1,78689,WMM1,259092,false,false,202,image-keyboard-response,9
true,2,0,3,1,false,z,false,true,0.0-2.0-0.4-0.39-3.39,0,0,1,81,false,stim,true,0,492,2,0,0,78689,WMM1,261109,false,true,205,image-keyboard-response,10
true,2,0,3,1,false,z,false,false,0.0-2.0-0.4-0.40-3.40,0,0,1,81,false,stim,true,0,950,2,0,0,78689,WMM1,263587,false,false,208,image-keyboard-response,11
true,2,1,3,1,true,z,false,true,0.0-2.0-0.4-0.41-3.41,0,0,1,90,false,stim,false,1,506,2,1,2,78689,WMM1,265634,false,false,211,image-keyboard-response,12
true,2,1,3,2,false,d,true,false,0.0-2.0-0.4-0.42-3.42,0,0,1,90,false,stim,false,0,1362,2,0,1,78689,WMM1,268529,false,false,214,image-keyboard-response,13
true,2,0,3,1,false,z,true,false,0.0-2.0-0.4-0.43-3.43,0,0,1,81,false,stim,false,1,1272,2,1,2,78689,WMM1,271338,false,false,217,image-keyboard-response,14
true,2,2,3,1,false,z,true,false,0.0-2.0-0.4-0.44-3.44,0,0,1,68,false,stim,false,0,452,2,0,0,78689,WMM1,273328,false,false,220,image-keyboard-response,15
true,2,1,3,2,false,d,true,false,0.0-2.0-0.5-0.45-3.45,0,0,1,90,false,stim,false,0,877,2,0,1,78689,WMM1,275735,false,false,223,image-keyboard-response,16
true,2,0,3,1,false,z,true,false,0.0-2.0-0.5-0.46-3.46,0,0,1,81,false,stim,false,1,523,2,1,2,78689,WMM1,277790,false,false,226,image-keyboard-response,17
true,2,1,3,2,false,d,true,false,0.0-2.0-0.5-0.47-3.47,0,0,1,90,false,stim,false,0,1640,2,0,1,78689,WMM1,280968,false,false,229,image-keyboard-response,18
true,2,0,3,1,false,z,true,false,0.0-2.0-0.5-0.48-3.48,0,0,1,81,false,stim,false,1,1946,2,1,2,78689,WMM1,284444,false,false,232,image-keyboard-response,19
true,2,2,3,1,false,z,true,false,0.0-2.0-0.5-0.49-3.49,0,0,1,68,false,stim,false,0,1581,2,0,0,78689,WMM1,287558,false,false,235,image-keyboard-response,20
true,2,1,3,1,true,z,false,true,0.0-2.0-0.5-0.50-3.50,0,0,1,90,false,stim,false,1,1107,2,1,2,78689,WMM1,290204,false,false,238,image-keyboard-response,21
true,2,0,3,2,false,d,false,false,0.0-2.0-0.5-0.51-3.51,0,0,1,81,false,stim,true,0,2288,2,0,1,78689,WMM1,294026,false,false,241,image-keyboard-response,22
true,2,1,3,1,true,z,false,true,0.0-2.0-0.5-0.52-3.52,0,0,1,90,false,stim,false,0,555,2,0,0,78689,WMM1,296121,false,false,244,image-keyboard-response,23
true,2,0,3,1,false,z,false,false,0.0-2.0-0.5-0.53-3.53,0,0,1,81,false,stim,true,0,1141,2,0,0,78689,WMM1,298789,false,false,247,image-keyboard-response,24
true,2,2,3,1,false,z,true,false,0.0-2.0-0.6-0.54-3.54,0,0,1,68,false,stim,false,0,1646,2,0,0,78689,WMM1,301963,false,false,250,image-keyboard-response,25
true,2,0,3,1,false,z,true,false,0.0-2.0-0.6-0.55-3.55,0,0,1,81,false,stim,false,1,974,2,1,2,78689,WMM1,304471,false,false,253,image-keyboard-response,26
true,2,1,3,1,true,z,false,true,0.0-2.0-0.6-0.56-3.56,0,0,1,90,false,stim,false,0,1083,2,0,0,78689,WMM1,307091,false,false,256,image-keyboard-response,27
true,2,0,3,1,false,z,true,false,0.0-2.0-0.6-0.57-3.57,0,0,1,81,false,stim,false,1,1329,2,1,2,78689,WMM1,309947,false,false,259,image-keyboard-response,28
true,2,2,3,2,true,d,false,true,0.0-2.0-0.6-0.58-3.58,0,0,1,68,false,stim,false,0,1874,2,0,1,78689,WMM1,313351,false,false,262,image-keyboard-response,29
true,2,2,3,2,true,d,false,true,0.0-2.0-0.6-0.59-3.59,0,0,1,68,false,stim,false,0,494,2,0,1,78689,WMM1,315368,false,false,265,image-keyboard-response,30
true,2,2,3,1,false,z,true,true,0.0-2.0-0.6-0.60-3.60,0,0,1,68,false,stim,false,0,1275,2,0,0,78689,WMM1,318183,false,true,268,image-keyboard-response,31
true,2,2,3,2,true,d,false,true,0.0-2.0-0.6-0.61-3.61,0,0,1,68,false,stim,false,0,1052,2,0,1,78689,WMM1,320780,false,false,271,image-keyboard-response,32
true,2,1,3,1,true,z,false,true,0.0-2.0-0.6-0.62-3.62,0,0,1,90,false,stim,false,1,1015,2,1,2,78689,WMM1,323323,false,false,274,image-keyboard-response,33
true,2,2,3,2,true,d,false,true,0.0-2.0-0.7-0.63-3.63,0,0,1,68,false,stim,false,0,875,2,0,1,78689,WMM1,325733,false,false,277,image-keyboard-response,34
true,2,1,3,1,true,z,false,true,0.0-2.0-0.7-0.64-3.64,0,0,1,90,false,stim,false,1,704,2,1,2,78689,WMM1,327971,false,false,280,image-keyboard-response,35
true,2,0,3,1,false,z,false,false,0.0-2.0-0.7-0.65-3.65,0,0,1,81,false,stim,true,0,870,2,0,0,78689,WMM1,330368,false,false,283,image-keyboard-response,36
true,2,2,3,2,true,d,false,true,0.0-2.0-0.7-0.66-3.66,0,0,1,68,false,stim,false,0,744,2,0,1,78689,WMM1,332638,false,false,286,image-keyboard-response,37
true,2,2,3,1,false,z,true,false,0.0-2.0-0.7-0.67-3.67,0,0,1,68,false,stim,false,1,1305,2,1,2,78689,WMM1,335483,false,false,289,image-keyboard-response,38
true,2,1,3,1,true,z,false,false,0.0-2.0-0.7-0.68-3.68,0,0,1,90,false,stim,false,0,828,2,0,0,78689,WMM1,337845,false,true,292,image-keyboard-response,39
true,2,1,3,2,false,d,true,false,0.0-2.0-0.7-0.69-3.69,0,0,1,90,false,stim,false,0,661,2,0,1,78689,WMM1,340039,false,false,295,image-keyboard-response,40
true,2,2,3,1,false,z,true,true,0.0-2.0-0.7-0.70-3.70,0,0,1,68,false,stim,false,0,863,2,0,0,78689,WMM1,342440,false,true,298,image-keyboard-response,41
true,2,0,3,1,false,z,true,true,0.0-2.0-0.7-0.71-3.71,0,0,1,81,false,stim,false,1,1017,2,1,2,78689,WMM1,345003,false,true,301,image-keyboard-response,42
true,2,2,3,2,true,d,false,true,0.0-2.0-0.8-0.72-3.72,0,0,1,68,false,stim,false,0,653,2,0,1,78689,WMM1,347190,false,false,304,image-keyboard-response,43
true,2,1,3,1,true,z,false,true,0.0-2.0-0.8-0.73-3.73,0,0,1,90,false,stim,false,0,758,2,0,0,78689,WMM1,349476,false,false,307,image-keyboard-response,44
true,2,1,3,2,false,d,true,true,0.0-2.0-0.8-0.74-3.74,0,0,1,90,false,stim,false,0,521,2,0,1,78689,WMM1,351538,false,true,310,image-keyboard-response,45
true,2,0,3,1,false,z,false,false,0.0-2.0-0.8-0.75-3.75,0,0,1,81,false,stim,true,0,728,2,0,0,78689,WMM1,353805,false,false,313,image-keyboard-response,46
true,2,2,3,1,false,z,true,false,0.0-2.0-0.8-0.76-3.76,0,0,1,68,false,stim,false,0,1279,2,0,0,78689,WMM1,356615,false,false,316,image-keyboard-response,47
true,2,1,3,1,true,z,false,false,0.0-2.0-0.8-0.77-3.77,0,0,1,90,false,stim,false,1,826,2,1,2,78689,WMM1,358983,false,true,319,image-keyboard-response,48
true,2,0,3,1,false,z,true,false,0.0-2.0-0.8-0.78-3.78,0,0,1,81,false,stim,false,1,1539,2,1,2,78689,WMM1,362057,false,false,322,image-keyboard-response,49
true,2,2,3,1,false,z,true,false,0.0-2.0-0.8-0.79-3.79,0,0,1,68,false,stim,false,1,1613,2,1,2,78689,WMM1,365209,false,false,325,image-keyboard-response,50
true,2,1,3,2,false,d,true,false,0.0-2.0-0.8-0.80-3.80,0,0,1,90,false,stim,false,0,792,2,0,1,78689,WMM1,367539,false,false,328,image-keyboard-response,51
true,2,2,3,1,false,z,true,false,0.0-2.0-0.9-0.81-3.81,0,0,1,68,false,stim,false,1,1982,2,0,2,78689,WMM1,371049,false,false,331,image-keyboard-response,52
true,2,0,3,1,false,z,true,false,0.0-2.0-0.9-0.82-3.82,0,0,1,81,false,stim,false,1,2200,2,0,2,78689,WMM1,374788,false,false,334,image-keyboard-response,53
true,2,1,3,1,true,z,false,true,0.0-2.0-0.9-0.83-3.83,0,0,1,90,false,stim,false,1,2383,2,0,2,78689,WMM1,378710,false,false,337,image-keyboard-response,54
true,2,0,3,1,false,z,false,false,0.0-2.0-0.9-0.84-3.84,0,0,1,81,false,stim,true,0,1934,2,1,0,78689,WMM1,382171,false,false,340,image-keyboard-response,55
true,2,2,3,1,false,z,true,false,0.0-2.0-0.9-0.85-3.85,0,0,1,68,false,stim,false,0,1089,2,1,0,78689,WMM1,384786,false,false,343,image-keyboard-response,56
true,2,1,3,1,true,z,false,true,0.0-2.0-0.9-0.86-3.86,0,0,1,90,false,stim,false,0,2624,2,1,0,78689,WMM1,388943,false,false,346,image-keyboard-response,57
true,2,2,3,2,true,d,false,false,0.0-2.0-0.9-0.87-3.87,0,0,1,68,false,stim,false,0,1401,2,0,1,78689,WMM1,391877,false,true,349,image-keyboard-response,58
true,2,0,3,2,false,d,false,false,0.0-2.0-0.9-0.88-3.88,0,0,1,81,false,stim,true,0,677,2,0,1,78689,WMM1,394094,false,false,352,image-keyboard-response,59
true,2,0,3,2,false,d,false,false,0.0-2.0-0.9-0.89-3.89,0,0,1,81,false,stim,true,0,1667,2,0,1,78689,WMM1,397295,false,false,355,image-keyboard-response,60
true,3,1,3,2,false,d,false,false,0.0-2.0-0.10-0.90-3.90,1,0,0,90,true,stim,true,1,1324,2,0,2,78689,WMM1,400152,false,false,358,image-keyboard-response,1
true,3,1,3,1,true,z,false,true,0.0-2.0-0.10-0.91-3.91,1,0,0,90,false,stim,false,1,1474,2,1,0,78689,WMM1,403152,false,false,361,image-keyboard-response,2
true,3,0,3,2,false,d,true,false,0.0-2.0-0.10-0.92-3.92,1,0,0,81,false,stim,false,1,1374,2,0,2,78689,WMM1,406052,false,false,364,image-keyboard-response,3
true,3,1,3,2,false,d,false,false,0.0-2.0-0.10-0.93-3.93,1,0,0,90,false,stim,true,1,1633,2,0,2,78689,WMM1,409220,false,false,367,image-keyboard-response,4
true,3,2,3,0,false,q,false,false,0.0-2.0-0.10-0.94-3.94,1,0,0,68,false,stim,true,2,722,2,0,1,78689,WMM1,411479,false,false,370,image-keyboard-response,5
true,3,1,3,1,true,z,false,true,0.0-2.0-0.10-0.95-3.95,1,0,0,90,false,stim,false,1,1101,2,1,0,78689,WMM1,414119,false,false,373,image-keyboard-response,6
true,3,0,3,0,true,q,false,true,0.0-2.0-0.10-0.96-3.96,1,0,0,81,false,stim,false,2,1203,2,0,1,78689,WMM1,416861,false,false,376,image-keyboard-response,7
true,3,0,3,0,true,q,false,true,0.0-2.0-0.10-0.97-3.97,1,0,0,81,false,stim,false,2,836,2,0,1,78689,WMM1,419233,false,false,379,image-keyboard-response,8
true,3,1,3,1,true,z,false,false,0.0-2.0-0.10-0.98-3.98,1,0,0,90,false,stim,false,1,593,2,1,0,78689,WMM1,421370,false,true,382,image-keyboard-response,9
true,3,2,3,1,false,z,true,false,0.0-2.0-0.11-0.99-3.99,1,0,0,68,false,stim,false,1,1732,2,1,0,78689,WMM1,424630,false,false,385,image-keyboard-response,10
true,3,1,3,2,false,d,false,false,0.0-2.0-0.11-0.100-3.100,1,0,0,90,false,stim,true,1,1073,2,0,2,78689,WMM1,427231,false,false,388,image-keyboard-response,11
true,3,0,3,1,false,z,true,true,0.0-2.0-0.11-0.101-3.101,1,0,0,81,false,stim,false,1,1294,2,1,0,78689,WMM1,430052,false,true,391,image-keyboard-response,12
true,3,1,3,2,false,d,false,false,0.0-2.0-0.11-0.102-3.102,1,0,0,90,false,stim,true,1,1771,2,0,2,78689,WMM1,433348,false,false,394,image-keyboard-response,13
true,3,0,3,2,false,d,true,false,0.0-2.0-0.11-0.103-3.103,1,0,0,81,false,stim,false,1,541,2,0,2,78689,WMM1,435428,false,false,397,image-keyboard-response,14
true,3,0,3,0,true,q,false,true,0.0-2.0-0.11-0.104-3.104,1,0,0,81,false,stim,false,2,659,2,0,1,78689,WMM1,437627,false,false,400,image-keyboard-response,15
true,3,0,3,0,true,q,false,true,0.0-2.0-0.11-0.105-3.105,1,0,0,81,false,stim,false,2,518,2,0,1,78689,WMM1,439696,false,false,403,image-keyboard-response,16
true,3,2,3,1,false,z,true,false,0.0-2.0-0.11-0.106-3.106,1,0,0,68,false,stim,false,1,2076,2,1,0,78689,WMM1,443313,false,false,406,image-keyboard-response,17
true,3,0,3,0,true,q,false,true,0.0-2.0-0.11-0.107-3.107,1,0,0,81,false,stim,false,2,572,2,0,1,78689,WMM1,445419,false,false,409,image-keyboard-response,18
true,3,1,3,2,false,d,false,false,0.0-2.0-0.12-0.108-3.108,1,0,0,90,false,stim,true,1,1261,2,0,2,78689,WMM1,448208,false,false,412,image-keyboard-response,19
true,3,2,3,1,false,z,true,false,0.0-2.0-0.12-0.109-3.109,1,0,0,68,false,stim,false,1,1501,2,1,0,78689,WMM1,451239,false,false,415,image-keyboard-response,20
true,3,0,3,0,true,q,false,true,0.0-2.0-0.12-0.110-3.110,1,0,0,81,false,stim,false,2,809,2,0,1,78689,WMM1,453586,false,false,418,image-keyboard-response,21
true,3,1,3,2,false,d,false,true,0.0-2.0-0.12-0.111-3.111,1,0,0,90,false,stim,true,1,937,2,0,2,78689,WMM1,456054,false,true,421,image-keyboard-response,22
true,3,0,3,0,true,q,false,true,0.0-2.0-0.12-0.112-3.112,1,0,0,81,false,stim,false,2,604,2,0,1,78689,WMM1,458202,false,false,424,image-keyboard-response,23
true,3,1,3,1,true,z,false,true,0.0-2.0-0.12-0.113-3.113,1,0,0,90,false,stim,false,1,863,2,1,0,78689,WMM1,460591,false,false,427,image-keyboard-response,24
true,3,1,3,1,true,z,false,true,0.0-2.0-0.12-0.114-3.114,1,0,0,90,false,stim,false,1,1208,2,1,0,78689,WMM1,463326,false,false,430,image-keyboard-response,25
true,3,2,3,2,true,d,false,true,0.0-2.0-0.12-0.115-3.115,1,0,0,68,false,stim,false,1,1094,2,0,2,78689,WMM1,465952,false,false,433,image-keyboard-response,26
true,3,0,3,0,true,q,false,true,0.0-2.0-0.12-0.116-3.116,1,0,0,81,false,stim,false,2,359,2,0,1,78689,WMM1,467846,false,false,436,image-keyboard-response,27
true,3,2,3,2,true,d,false,true,0.0-2.0-0.13-0.117-3.117,1,0,0,68,false,stim,false,1,701,2,0,2,78689,WMM1,470079,false,false,439,image-keyboard-response,28
true,3,0,3,0,true,q,false,true,0.0-2.0-0.13-0.118-3.118,1,0,0,81,false,stim,false,2,1172,2,0,1,78689,WMM1,472789,false,false,442,image-keyboard-response,29
true,3,2,3,1,false,z,true,false,0.0-2.0-0.13-0.119-3.119,1,0,0,68,false,stim,false,1,1343,2,0,0,78689,WMM1,475660,false,false,445,image-keyboard-response,30
true,3,0,3,0,true,q,false,false,0.0-2.0-0.13-0.120-3.120,1,0,0,81,false,stim,false,2,490,2,0,1,78689,WMM1,477687,false,true,448,image-keyboard-response,31
true,3,1,3,2,false,d,false,false,0.0-2.0-0.13-0.121-3.121,1,0,0,90,false,stim,true,1,527,2,0,2,78689,WMM1,479745,false,false,451,image-keyboard-response,32
true,3,0,3,1,false,z,true,false,0.0-2.0-0.13-0.122-3.122,1,0,0,81,false,stim,false,1,702,2,0,0,78689,WMM1,481979,false,false,454,image-keyboard-response,33
true,3,1,3,2,false,d,false,false,0.0-2.0-0.13-0.123-3.123,1,0,0,90,false,stim,true,1,1319,2,0,2,78689,WMM1,484826,false,false,457,image-keyboard-response,34
true,3,2,3,0,false,q,false,false,0.0-2.0-0.13-0.124-3.124,1,0,0,68,false,stim,true,2,968,2,0,1,78689,WMM1,487326,false,false,460,image-keyboard-response,35
true,3,1,3,1,true,z,false,true,0.0-2.0-0.13-0.125-3.125,1,0,0,90,false,stim,false,1,927,2,0,0,78689,WMM1,489785,false,false,463,image-keyboard-response,36
true,3,0,3,0,true,q,false,true,0.0-2.0-0.14-0.126-3.126,1,0,0,81,false,stim,false,2,2214,2,0,1,78689,WMM1,493531,false,false,466,image-keyboard-response,37
true,3,2,3,1,false,z,true,false,0.0-2.0-0.14-0.127-3.127,1,0,0,68,false,stim,false,1,2293,2,0,0,78689,WMM1,497362,false,false,469,image-keyboard-response,38
true,4,0,1,1,false,z,true,false,0.0-2.0-0.14-0.128-3.128,0,0,0,81,true,stim,false,2,1641,2,0,2,78689,WMM1,500528,false,false,472,image-keyboard-response,1
true,4,1,1,0,false,q,false,true,0.0-2.0-0.14-0.129-3.129,0,0,0,90,false,stim,true,1,847,2,0,0,78689,WMM1,502914,false,true,475,image-keyboard-response,2
true,4,0,1,1,false,z,true,false,0.0-2.0-0.14-0.130-3.130,0,0,0,81,false,stim,false,2,1709,2,0,2,78689,WMM1,506156,false,false,478,image-keyboard-response,3
true,4,1,1,1,true,z,false,true,0.0-2.0-0.14-0.131-3.131,0,0,0,90,false,stim,false,2,601,2,0,2,78689,WMM1,508299,false,false,481,image-keyboard-response,4
true,4,0,1,2,false,d,false,false,0.0-2.0-0.14-0.132-3.132,0,0,0,81,false,stim,true,0,722,2,0,1,78689,WMM1,510560,false,false,484,image-keyboard-response,5
true,4,2,1,0,false,q,true,false,0.0-2.0-0.14-0.133-3.133,0,0,0,68,false,stim,false,1,601,2,0,0,78689,WMM1,512698,false,false,487,image-keyboard-response,6
true,4,0,1,2,false,d,false,false,0.0-2.0-0.14-0.134-3.134,0,0,0,81,false,stim,true,0,1022,2,0,1,78689,WMM1,515250,false,false,490,image-keyboard-response,7
true,4,2,1,1,false,z,false,false,0.0-2.0-0.15-0.135-3.135,0,0,0,68,false,stim,true,2,1604,2,0,2,78689,WMM1,518381,false,false,493,image-keyboard-response,8
true,4,0,1,0,true,q,false,true,0.0-2.0-0.15-0.136-3.136,0,0,0,81,false,stim,false,1,1504,2,0,0,78689,WMM1,521422,false,false,496,image-keyboard-response,9
true,4,0,1,0,true,q,false,true,0.0-2.0-0.15-0.137-3.137,0,0,0,81,false,stim,false,1,2594,2,0,0,78689,WMM1,525552,false,false,499,image-keyboard-response,10
true,4,1,1,2,false,d,true,false,0.0-2.0-0.15-0.138-3.138,0,0,0,90,false,stim,false,0,932,2,0,1,78689,WMM1,528019,false,false,502,image-keyboard-response,11
true,4,1,1,1,true,z,false,true,0.0-2.0-0.15-0.139-3.139,0,0,0,90,false,stim,false,2,521,2,0,2,78689,WMM1,530068,false,false,505,image-keyboard-response,12
true,4,1,1,1,true,z,false,true,0.0-2.0-0.15-0.140-3.140,0,0,0,90,false,stim,false,2,1238,2,0,2,78689,WMM1,532845,false,false,508,image-keyboard-response,13
true,4,0,1,2,false,d,false,false,0.0-2.0-0.15-0.141-3.141,0,0,0,81,false,stim,true,0,1404,2,0,1,78689,WMM1,535791,false,false,511,image-keyboard-response,14
true,4,0,1,0,true,q,false,true,0.0-2.0-0.15-0.142-3.142,0,0,0,81,false,stim,false,1,1567,2,0,0,78689,WMM1,538886,false,false,514,image-keyboard-response,15
true,4,2,1,2,true,d,false,true,0.0-2.0-0.15-0.143-3.143,0,0,0,68,false,stim,false,0,1048,2,0,1,78689,WMM1,541465,false,false,517,image-keyboard-response,16
true,4,2,1,2,true,d,false,true,0.0-2.0-0.16-0.144-3.144,0,0,0,68,false,stim,false,0,459,2,0,1,78689,WMM1,543456,false,false,520,image-keyboard-response,17
true,4,1,1,1,true,z,false,true,0.0-2.0-0.16-0.145-3.145,0,0,0,90,false,stim,false,2,1137,2,0,2,78689,WMM1,546135,false,false,523,image-keyboard-response,18
true,4,2,1,2,true,d,false,true,0.0-2.0-0.16-0.146-3.146,0,0,0,68,false,stim,false,0,810,2,0,1,78689,WMM1,548487,false,false,526,image-keyboard-response,19
true,4,2,1,2,true,d,false,true,0.0-2.0-0.16-0.147-3.147,0,0,0,68,false,stim,false,0,2395,2,0,1,78689,WMM1,552412,false,false,529,image-keyboard-response,20
true,4,0,1,0,true,q,false,true,0.0-2.0-0.16-0.148-3.148,0,0,0,81,false,stim,false,1,1893,2,0,0,78689,WMM1,555849,false,false,532,image-keyboard-response,21
true,4,0,1,0,true,q,false,true,0.0-2.0-0.16-0.149-3.149,0,0,0,81,false,stim,false,1,1233,2,0,0,78689,WMM1,558609,false,false,535,image-keyboard-response,22
true,4,1,1,1,true,z,false,true,0.0-2.0-0.16-0.150-3.150,0,0,0,90,false,stim,false,2,702,2,0,2,78689,WMM1,560839,false,false,538,image-keyboard-response,23
true,4,0,1,0,true,q,false,true,0.0-2.0-0.16-0.151-3.151,0,0,0,81,false,stim,false,1,1522,2,0,0,78689,WMM1,563900,false,false,541,image-keyboard-response,24
true,4,1,1,1,true,z,false,true,0.0-2.0-0.16-0.152-3.152,0,0,0,90,false,stim,false,2,738,2,0,2,78689,WMM1,566176,false,false,544,image-keyboard-response,25
true,4,1,1,1,true,z,false,true,0.0-2.0-0.17-0.153-3.153,0,0,0,90,false,stim,false,2,392,2,0,2,78689,WMM1,568109,false,false,547,image-keyboard-response,26
true,4,2,1,2,true,d,false,true,0.0-2.0-0.17-0.154-3.154,0,0,0,68,false,stim,false,0,887,2,0,1,78689,WMM1,570524,false,false,550,image-keyboard-response,27
true,4,2,1,2,true,d,false,true,0.0-2.0-0.17-0.155-3.155,0,0,0,68,false,stim,false,0,1081,2,0,1,78689,WMM1,573139,false,false,553,image-keyboard-response,28
true,4,1,1,1,true,z,false,true,0.0-2.0-0.17-0.156-3.156,0,0,0,90,false,stim,false,2,1805,2,0,2,78689,WMM1,576483,false,false,556,image-keyboard-response,29
true,4,0,1,0,true,q,false,true,0.0-2.0-0.17-0.157-3.157,0,0,0,81,false,stim,false,1,1091,2,0,0,78689,WMM1,579098,false,false,559,image-keyboard-response,30
true,5,0,4,2,false,d,false,false,0.0-2.0-0.17-0.158-3.158,0,0,0,81,true,stim,true,0,741,2,0,0,78689,WMM1,581363,false,false,562,image-keyboard-response,1
true,5,0,4,2,false,d,false,false,0.0-2.0-0.17-0.159-3.159,0,0,0,81,false,stim,true,0,1122,2,0,0,78689,WMM1,584019,false,false,565,image-keyboard-response,2
true,5,0,4,0,true,q,false,true,0.0-2.0-0.17-0.160-3.160,0,0,0,81,false,stim,false,1,1366,2,0,2,78689,WMM1,586908,false,false,568,image-keyboard-response,3
true,5,1,4,1,true,z,false,true,0.0-2.0-0.17-0.161-3.161,0,0,0,90,false,stim,false,2,986,2,0,1,78689,WMM1,589434,false,false,571,image-keyboard-response,4
true,5,2,4,2,true,d,false,true,0.0-2.0-0.18-0.162-3.162,0,0,0,68,false,stim,false,0,767,2,0,0,78689,WMM1,591724,false,false,574,image-keyboard-response,5
true,5,1,4,1,true,z,false,true,0.0-2.0-0.18-0.163-3.163,0,0,0,90,false,stim,false,2,1042,2,0,1,78689,WMM1,594299,false,false,577,image-keyboard-response,6
true,5,1,4,1,true,z,false,true,0.0-2.0-0.18-0.164-3.164,0,0,0,90,false,stim,false,2,429,2,0,1,78689,WMM1,596266,false,false,580,image-keyboard-response,7
true,5,2,4,2,true,d,false,true,0.0-2.0-0.18-0.165-3.165,0,0,0,68,false,stim,false,0,1087,2,0,0,78689,WMM1,598874,false,false,583,image-keyboard-response,8
true,5,0,4,0,true,q,false,true,0.0-2.0-0.18-0.166-3.166,0,0,0,81,false,stim,false,1,1057,2,0,2,78689,WMM1,601474,false,false,586,image-keyboard-response,9
true,5,1,4,1,true,z,false,true,0.0-2.0-0.18-0.167-3.167,0,0,0,90,false,stim,false,2,1495,2,0,1,78689,WMM1,604513,false,false,589,image-keyboard-response,10
true,5,2,4,2,true,d,false,false,0.0-2.0-0.18-0.168-3.168,0,0,0,68,false,stim,false,0,1169,2,0,0,78689,WMM1,607226,false,true,592,image-keyboard-response,11
true,5,0,4,0,true,q,false,true,0.0-2.0-0.18-0.169-3.169,0,0,0,81,false,stim,false,1,854,2,0,2,78689,WMM1,609612,false,false,595,image-keyboard-response,12
true,5,0,4,0,true,q,false,true,0.0-2.0-0.18-0.170-3.170,0,0,0,81,false,stim,false,1,581,2,0,2,78689,WMM1,611719,false,false,598,image-keyboard-response,13
true,5,0,4,0,true,q,false,true,0.0-2.0-0.19-0.171-3.171,0,0,0,81,false,stim,false,1,1614,2,0,2,78689,WMM1,614878,false,false,601,image-keyboard-response,14
true,5,2,4,2,true,d,false,true,0.0-2.0-0.19-0.172-3.172,0,0,0,68,false,stim,false,0,1800,2,0,0,78689,WMM1,618209,false,false,604,image-keyboard-response,15
true,5,0,4,0,true,q,false,true,0.0-2.0-0.19-0.173-3.173,0,0,0,81,false,stim,false,1,2512,2,0,2,78689,WMM1,622260,false,false,607,image-keyboard-response,16
true,5,1,4,1,true,z,false,true,0.0-2.0-0.19-0.174-3.174,0,0,0,90,false,stim,false,2,595,2,0,1,78689,WMM1,624383,false,false,610,image-keyboard-response,17
true,5,0,4,0,true,q,false,true,0.0-2.0-0.19-0.175-3.175,0,0,0,81,false,stim,false,1,2211,2,0,2,78689,WMM1,628119,false,false,613,image-keyboard-response,18
true,5,2,4,2,true,d,false,true,0.0-2.0-0.19-0.176-3.176,0,0,0,68,false,stim,false,0,1977,2,0,0,78689,WMM1,631634,false,false,616,image-keyboard-response,19
true,5,1,4,1,true,z,false,true,0.0-2.0-0.19-0.177-3.177,0,0,0,90,false,stim,false,2,1841,2,0,1,78689,WMM1,635018,false,false,619,image-keyboard-response,20
true,5,1,4,1,true,z,false,true,0.0-2.0-0.19-0.178-3.178,0,0,0,90,false,stim,false,2,568,2,0,1,78689,WMM1,637115,false,false,622,image-keyboard-response,21
true,5,2,4,2,true,d,false,true,0.0-2.0-0.19-0.179-3.179,0,0,0,68,false,stim,false,0,2322,2,0,0,78689,WMM1,640979,false,false,625,image-keyboard-response,22
true,5,0,4,0,true,q,false,true,0.0-2.0-0.20-0.180-3.180,0,0,0,81,false,stim,false,1,1336,2,0,2,78689,WMM1,643854,false,false,628,image-keyboard-response,23
true,5,2,4,2,true,d,false,true,0.0-2.0-0.20-0.181-3.181,0,0,0,68,false,stim,false,0,1207,2,0,0,78689,WMM1,646605,false,false,631,image-keyboard-response,24
true,5,2,4,2,true,d,false,false,0.0-2.0-0.20-0.182-3.182,0,0,0,68,false,stim,false,0,712,2,0,0,78689,WMM1,648859,false,true,634,image-keyboard-response,25
true,5,0,4,0,true,q,false,true,0.0-2.0-0.20-0.183-3.183,0,0,0,81,false,stim,false,1,854,2,0,2,78689,WMM1,651252,false,false,637,image-keyboard-response,26
true,5,1,4,1,true,z,false,true,0.0-2.0-0.20-0.184-3.184,0,0,0,90,false,stim,false,2,737,2,0,1,78689,WMM1,653514,false,false,640,image-keyboard-response,27
true,5,0,4,0,true,q,false,true,0.0-2.0-0.20-0.185-3.185,0,0,0,81,false,stim,false,1,912,2,0,2,78689,WMM1,655969,false,false,643,image-keyboard-response,28
true,5,1,4,1,true,z,false,true,0.0-2.0-0.20-0.186-3.186,0,0,0,90,false,stim,false,2,1985,2,0,1,78689,WMM1,659473,false,false,646,image-keyboard-response,29
true,5,2,4,2,true,d,false,true,0.0-2.0-0.20-0.187-3.187,0,0,0,68,false,stim,false,0,1484,2,0,0,78689,WMM1,662491,false,false,649,image-keyboard-response,30
true,6,2,2,2,true,d,false,true,0.0-2.0-0.20-0.188-3.188,0,0,0,68,true,stim,false,1,1466,2,0,1,78689,WMM1,665494,false,false,652,image-keyboard-response,1
true,6,2,2,0,false,q,false,false,0.0-2.0-0.21-0.189-3.189,0,0,0,68,false,stim,true,2,1249,2,0,0,78689,WMM1,668276,false,false,655,image-keyboard-response,2
true,6,2,2,2,true,d,false,true,0.0-2.0-0.21-0.190-3.190,0,0,0,68,false,stim,false,1,950,2,0,1,78689,WMM1,670757,false,false,658,image-keyboard-response,3
true,6,2,2,2,true,d,false,true,0.0-2.0-0.21-0.191-3.191,0,0,0,68,false,stim,false,1,430,2,0,1,78689,WMM1,672718,false,false,661,image-keyboard-response,4
true,6,1,2,1,true,z,false,true,0.0-2.0-0.21-0.192-3.192,0,0,0,90,false,stim,false,0,753,2,0,2,78689,WMM1,675001,false,false,664,image-keyboard-response,5
true,6,1,2,1,true,z,false,true,0.0-2.0-0.21-0.193-3.193,0,0,0,90,false,stim,false,0,576,2,0,2,78689,WMM1,677104,false,false,667,image-keyboard-response,6
true,6,0,2,0,true,q,false,true,0.0-2.0-0.21-0.194-3.194,0,0,0,81,false,stim,false,2,891,2,0,0,78689,WMM1,679539,false,false,670,image-keyboard-response,7
true,6,2,2,2,true,d,false,true,0.0-2.0-0.21-0.195-3.195,0,0,0,68,false,stim,false,1,954,2,0,1,78689,WMM1,682021,false,false,673,image-keyboard-response,8
true,6,0,2,0,true,q,false,true,0.0-2.0-0.21-0.196-3.196,0,0,0,81,false,stim,false,2,368,2,0,0,78689,WMM1,683926,false,false,676,image-keyboard-response,9
true,6,1,2,1,true,z,false,true,0.0-2.0-0.21-0.197-3.197,0,0,0,90,false,stim,false,0,580,2,0,2,78689,WMM1,686038,false,false,679,image-keyboard-response,10
true,6,0,2,0,true,q,false,true,0.0-2.0-0.22-0.198-3.198,0,0,0,81,false,stim,false,2,1078,2,0,0,78689,WMM1,688641,false,false,682,image-keyboard-response,11
true,6,0,2,0,true,q,false,false,0.0-2.0-0.22-0.199-3.199,0,0,0,81,false,stim,false,2,476,2,0,0,78689,WMM1,690643,false,true,685,image-keyboard-response,12
true,6,1,2,1,true,z,false,true,0.0-2.0-0.22-0.200-3.200,0,0,0,90,false,stim,false,0,1242,2,0,2,78689,WMM1,693430,false,false,688,image-keyboard-response,13
true,6,2,2,2,true,d,false,false,0.0-2.0-0.22-0.201-3.201,0,0,0,68,false,stim,false,1,1098,2,0,1,78689,WMM1,696056,false,true,691,image-keyboard-response,14
true,6,1,2,1,true,z,false,true,0.0-2.0-0.22-0.202-3.202,0,0,0,90,false,stim,false,0,1917,2,0,2,78689,WMM1,699514,false,false,694,image-keyboard-response,15
true,6,2,2,2,true,d,false,true,0.0-2.0-0.22-0.203-3.203,0,0,0,68,false,stim,false,1,1403,2,0,1,78689,WMM1,702451,false,false,697,image-keyboard-response,16
true,6,0,2,0,true,q,false,false,0.0-2.0-0.22-0.204-3.204,0,0,0,81,false,stim,false,2,1618,2,0,0,78689,WMM1,705605,false,true,700,image-keyboard-response,17
true,6,2,2,1,false,z,true,false,0.0-2.0-0.22-0.205-3.205,0,0,0,68,false,stim,false,0,1962,2,0,2,78689,WMM1,709120,false,false,703,image-keyboard-response,18
true,6,2,2,2,true,d,false,true,0.0-2.0-0.22-0.206-3.206,0,0,0,68,false,stim,false,1,2354,2,0,1,78689,WMM1,713001,false,false,706,image-keyboard-response,19
true,6,2,2,2,true,d,false,true,0.0-2.0-0.23-0.207-3.207,0,0,0,68,false,stim,false,1,2543,2,0,1,78689,WMM1,717072,false,false,709,image-keyboard-response,20
true,6,0,2,0,true,q,false,true,0.0-2.0-0.23-0.208-3.208,0,0,0,81,false,stim,false,2,1916,2,0,0,78689,WMM1,720524,false,false,712,image-keyboard-response,21
true,6,0,2,0,true,q,false,true,0.0-2.0-0.23-0.209-3.209,0,0,0,81,false,stim,false,2,2640,2,0,0,78689,WMM1,724699,false,false,715,image-keyboard-response,22
true,6,1,2,1,true,z,false,true,0.0-2.0-0.23-0.210-3.210,0,0,0,90,false,stim,false,0,1068,2,0,2,78689,WMM1,727298,false,false,718,image-keyboard-response,23
true,6,1,2,1,true,z,false,false,0.0-2.0-0.23-0.211-3.211,0,0,0,90,false,stim,false,0,1572,2,0,2,78689,WMM1,730411,false,true,721,image-keyboard-response,24
true,6,2,2,2,true,d,false,true,0.0-2.0-0.23-0.212-3.212,0,0,0,68,false,stim,false,1,1559,2,0,1,78689,WMM1,733518,false,false,724,image-keyboard-response,25
true,6,2,2,2,true,d,false,true,0.0-2.0-0.23-0.213-3.213,0,0,0,68,false,stim,false,1,659,2,0,1,78689,WMM1,735719,false,false,727,image-keyboard-response,26
true,6,0,2,0,true,q,false,true,0.0-2.0-0.23-0.214-3.214,0,0,0,81,false,stim,false,2,1328,2,0,0,78689,WMM1,738589,false,false,730,image-keyboard-response,27
true,6,1,2,1,true,z,false,true,0.0-2.0-0.23-0.215-3.215,0,0,0,90,false,stim,false,0,1143,2,1,2,78689,WMM1,741265,false,false,733,image-keyboard-response,28
true,6,2,2,2,true,d,false,true,0.0-2.0-0.24-0.216-3.216,0,0,0,68,false,stim,false,1,1035,2,0,1,78689,WMM1,743836,false,false,736,image-keyboard-response,29
true,6,0,2,0,true,q,false,true,0.0-2.0-0.24-0.217-3.217,0,0,0,81,false,stim,false,2,1868,2,0,0,78689,WMM1,747231,false,false,739,image-keyboard-response,30
true,6,1,2,1,true,z,false,true,0.0-2.0-0.24-0.218-3.218,0,0,0,90,false,stim,false,0,2094,2,1,2,78689,WMM1,750858,false,false,742,image-keyboard-response,31
true,6,1,2,1,true,z,false,true,0.0-2.0-0.24-0.219-3.219,0,0,0,90,false,stim,false,0,631,2,1,2,78689,WMM1,753014,false,false,745,image-keyboard-response,32
true,6,0,2,0,true,q,false,true,0.0-2.0-0.24-0.220-3.220,0,0,0,81,false,stim,false,2,1353,2,0,0,78689,WMM1,755908,false,false,748,image-keyboard-response,33
true,6,2,2,2,true,d,false,true,0.0-2.0-0.24-0.221-3.221,0,0,0,68,false,stim,false,1,2843,2,0,1,78689,WMM1,760279,false,false,751,image-keyboard-response,34
true,7,2,3,0,false,q,false,false,0.0-2.0-0.24-0.222-3.222,0,0,1,68,true,stim,true,2,625,2,0,1,78689,WMM1,762442,false,false,754,image-keyboard-response,1
true,7,0,3,1,false,z,false,false,0.0-2.0-0.24-0.223-3.223,0,0,1,81,false,stim,true,0,794,2,0,0,78689,WMM1,764770,false,false,757,image-keyboard-response,2
true,7,1,3,1,true,z,false,true,0.0-2.0-0.24-0.224-3.224,0,0,1,90,false,stim,false,1,2064,2,1,2,78689,WMM1,768360,false,false,760,image-keyboard-response,3
true,7,2,3,0,false,q,false,false,0.0-2.0-0.25-0.225-3.225,0,0,1,68,false,stim,true,2,1021,2,0,1,78689,WMM1,770918,false,false,763,image-keyboard-response,4
true,7,1,3,1,true,z,false,true,0.0-2.0-0.25-0.226-3.226,0,0,1,90,false,stim,false,1,1381,2,1,2,78689,WMM1,773839,false,false,766,image-keyboard-response,5
true,7,1,3,1,true,z,false,true,0.0-2.0-0.25-0.227-3.227,0,0,1,90,false,stim,false,1,1849,2,1,2,78689,WMM1,777217,false,false,769,image-keyboard-response,6
true,7,2,3,0,false,q,false,false,0.0-2.0-0.25-0.228-3.228,0,0,1,68,false,stim,true,2,2053,2,0,1,78689,WMM1,780802,false,false,772,image-keyboard-response,7
true,7,0,3,1,false,z,false,false,0.0-2.0-0.25-0.229-3.229,0,0,1,81,false,stim,true,0,1198,2,0,0,78689,WMM1,783527,false,false,775,image-keyboard-response,8
true,7,0,3,1,false,z,false,false,0.0-2.0-0.25-0.230-3.230,0,0,1,81,false,stim,true,0,1490,2,0,0,78689,WMM1,786560,false,false,778,image-keyboard-response,9
true,7,0,3,0,true,q,false,true,0.0-2.0-0.25-0.231-3.231,0,0,1,81,false,stim,false,2,1497,2,0,1,78689,WMM1,789578,false,false,781,image-keyboard-response,10
true,7,1,3,1,true,z,false,true,0.0-2.0-0.25-0.232-3.232,0,0,1,90,false,stim,false,1,896,2,1,2,78689,WMM1,791999,false,false,784,image-keyboard-response,11
true,7,2,3,1,false,z,true,false,0.0-2.0-0.25-0.233-3.233,0,0,1,68,false,stim,false,0,620,2,0,0,78689,WMM1,794161,false,false,787,image-keyboard-response,12
true,7,0,3,0,true,q,false,true,0.0-2.0-0.26-0.234-3.234,0,0,1,81,false,stim,false,2,956,2,0,1,78689,WMM1,796648,false,false,790,image-keyboard-response,13
true,7,0,3,0,true,q,false,true,0.0-2.0-0.26-0.235-3.235,0,0,1,81,false,stim,false,2,540,2,0,1,78689,WMM1,798713,false,false,793,image-keyboard-response,14
true,7,1,3,1,true,z,false,true,0.0-2.0-0.26-0.236-3.236,0,0,1,90,false,stim,false,1,700,2,1,2,78689,WMM1,800955,false,false,796,image-keyboard-response,15
true,7,0,3,1,false,z,false,false,0.0-2.0-0.26-0.237-3.237,0,0,1,81,false,stim,true,0,652,2,0,0,78689,WMM1,803136,false,false,799,image-keyboard-response,16
true,7,1,3,1,true,z,false,true,0.0-2.0-0.26-0.238-3.238,0,0,1,90,false,stim,false,1,954,2,1,2,78689,WMM1,805638,false,false,802,image-keyboard-response,17
true,7,1,3,1,true,z,false,true,0.0-2.0-0.26-0.239-3.239,0,0,1,90,false,stim,false,0,703,2,0,0,78689,WMM1,807868,false,false,805,image-keyboard-response,18
true,7,1,3,1,true,z,false,false,0.0-2.0-0.26-0.240-3.240,0,0,1,90,false,stim,false,0,807,2,0,0,78689,WMM1,810201,false,true,808,image-keyboard-response,19
true,7,1,3,1,true,z,false,true,0.0-2.0-0.26-0.241-3.241,0,0,1,90,false,stim,false,1,1316,2,1,2,78689,WMM1,813052,false,false,811,image-keyboard-response,20
true,7,0,3,0,true,q,false,false,0.0-2.0-0.26-0.242-3.242,0,0,1,81,false,stim,false,2,614,2,0,1,78689,WMM1,815210,false,true,814,image-keyboard-response,21
true,7,1,3,1,true,z,false,true,0.0-2.0-0.27-0.243-3.243,0,0,1,90,false,stim,false,1,1323,2,0,2,78689,WMM1,818049,false,false,817,image-keyboard-response,22
true,7,1,3,1,true,z,false,true,0.0-2.0-0.27-0.244-3.244,0,0,1,90,false,stim,false,1,565,2,0,2,78689,WMM1,820142,false,false,820,image-keyboard-response,23
true,7,0,3,0,true,q,false,true,0.0-2.0-0.27-0.245-3.245,0,0,1,81,false,stim,false,2,569,2,0,1,78689,WMM1,822246,false,false,823,image-keyboard-response,24
true,7,1,3,1,true,z,false,true,0.0-2.0-0.27-0.246-3.246,0,0,1,90,false,stim,false,1,795,2,0,2,78689,WMM1,824573,false,false,826,image-keyboard-response,25
true,7,0,3,0,true,q,false,true,0.0-2.0-0.27-0.247-3.247,0,0,1,81,false,stim,false,2,608,2,0,1,78689,WMM1,826706,false,false,829,image-keyboard-response,26
true,7,0,3,0,true,q,false,false,0.0-2.0-0.27-0.248-3.248,0,0,1,81,false,stim,false,2,457,2,0,1,78689,WMM1,828696,false,true,832,image-keyboard-response,27
true,7,0,3,1,false,z,false,false,0.0-2.0-0.27-0.249-3.249,0,0,1,81,false,stim,true,0,1324,2,0,0,78689,WMM1,831563,false,false,835,image-keyboard-response,28
true,7,2,3,1,false,z,true,false,0.0-2.0-0.27-0.250-3.250,0,0,1,68,false,stim,false,0,595,2,0,0,78689,WMM1,833695,false,false,838,image-keyboard-response,29
true,7,1,3,1,true,z,false,true,0.0-2.0-0.27-0.251-3.251,0,0,1,90,false,stim,false,0,426,2,0,0,78689,WMM1,835647,false,false,841,image-keyboard-response,30
true,8,1,1,2,false,d,false,false,0.0-2.0-0.28-0.252-3.252,0,0,0,90,true,stim,true,1,537,2,0,0,78689,WMM1,837717,false,false,844,image-keyboard-response,1
true,8,1,1,2,false,d,false,false,0.0-2.0-0.28-0.253-3.253,0,0,0,90,false,stim,true,1,420,2,0,0,78689,WMM1,839681,false,false,847,image-keyboard-response,2
true,8,1,1,2,false,d,false,false,0.0-2.0-0.28-0.254-3.254,0,0,0,90,false,stim,true,1,2079,2,0,2,78689,WMM1,843300,false,false,850,image-keyboard-response,3
true,8,2,1,2,true,d,false,true,0.0-2.0-0.28-0.255-3.255,0,0,0,68,false,stim,false,1,1589,2,0,2,78689,WMM1,846420,false,false,853,image-keyboard-response,4
true,8,2,1,2,true,d,false,true,0.0-2.0-0.28-0.256-3.256,0,0,0,68,false,stim,false,1,404,2,0,2,78689,WMM1,848357,false,false,856,image-keyboard-response,5
true,8,1,1,1,true,z,false,true,0.0-2.0-0.28-0.257-3.257,0,0,0,90,false,stim,false,0,570,2,0,1,78689,WMM1,850462,false,false,859,image-keyboard-response,6
true,8,1,1,1,true,z,false,true,0.0-2.0-0.28-0.258-3.258,0,0,0,90,false,stim,false,0,543,2,0,1,78689,WMM1,852537,false,false,862,image-keyboard-response,7
true,8,0,1,2,false,d,true,false,0.0-2.0-0.28-0.259-3.259,0,0,0,81,false,stim,false,1,1662,2,0,0,78689,WMM1,855736,false,false,865,image-keyboard-response,8
true,8,1,1,1,true,z,false,true,0.0-2.0-0.28-0.260-3.260,0,0,0,90,false,stim,false,0,737,2,0,1,78689,WMM1,858011,false,false,868,image-keyboard-response,9
true,8,1,1,1,true,z,false,false,0.0-2.0-0.29-0.261-3.261,0,0,0,90,false,stim,false,0,604,2,0,1,78689,WMM1,860160,false,true,871,image-keyboard-response,10
true,8,1,1,1,true,z,false,true,0.0-2.0-0.29-0.262-3.262,0,0,0,90,false,stim,false,0,685,2,0,1,78689,WMM1,862371,false,false,874,image-keyboard-response,11
true,8,1,1,1,true,z,false,true,0.0-2.0-0.29-0.263-3.263,0,0,0,90,false,stim,false,0,714,2,0,1,78689,WMM1,864610,false,false,877,image-keyboard-response,12
true,8,1,1,2,false,d,false,false,0.0-2.0-0.29-0.264-3.264,0,0,0,90,false,stim,true,1,1859,2,0,0,78689,WMM1,867996,false,false,880,image-keyboard-response,13
true,8,2,1,2,true,d,false,true,0.0-2.0-0.29-0.265-3.265,0,0,0,68,false,stim,false,1,1362,2,0,2,78689,WMM1,870899,false,false,883,image-keyboard-response,14
true,8,2,1,2,true,d,false,true,0.0-2.0-0.29-0.266-3.266,0,0,0,68,false,stim,false,1,831,2,0,2,78689,WMM1,873268,false,false,886,image-keyboard-response,15
true,8,2,1,2,true,d,false,true,0.0-2.0-0.29-0.267-3.267,0,0,0,68,false,stim,false,1,982,2,0,2,78689,WMM1,875770,false,false,889,image-keyboard-response,16
true,8,2,1,2,true,d,false,true,0.0-2.0-0.29-0.268-3.268,0,0,0,68,false,stim,false,1,1054,2,0,0,78689,WMM1,878353,false,false,892,image-keyboard-response,17
true,8,2,1,2,true,d,false,true,0.0-2.0-0.29-0.269-3.269,0,0,0,68,false,stim,false,1,851,2,0,0,78689,WMM1,880730,false,false,895,image-keyboard-response,18
true,8,2,1,2,true,d,false,false,0.0-2.0-0.30-0.270-3.270,0,0,0,68,false,stim,false,1,413,2,0,0,78689,WMM1,882674,false,true,898,image-keyboard-response,19
true,8,1,1,2,false,d,false,true,0.0-2.0-0.30-0.271-3.271,0,0,0,90,false,stim,true,1,494,2,0,0,78689,WMM1,884734,false,true,901,image-keyboard-response,20
true,8,1,1,1,true,z,false,true,0.0-2.0-0.30-0.272-3.272,0,0,0,90,false,stim,false,0,708,2,0,1,78689,WMM1,886966,false,false,904,image-keyboard-response,21
true,8,1,1,2,false,d,false,false,0.0-2.0-0.30-0.273-3.273,0,0,0,90,false,stim,true,1,528,2,0,0,78689,WMM1,889028,false,false,907,image-keyboard-response,22
true,8,2,1,2,true,d,false,true,0.0-2.0-0.30-0.274-3.274,0,0,0,68,false,stim,false,1,1191,2,0,2,78689,WMM1,891753,false,false,910,image-keyboard-response,23
true,8,2,1,2,true,d,false,true,0.0-2.0-0.30-0.275-3.275,0,0,0,68,false,stim,false,1,591,2,0,2,78689,WMM1,893893,false,false,913,image-keyboard-response,24
true,8,1,1,1,true,z,false,true,0.0-2.0-0.30-0.276-3.276,0,0,0,90,false,stim,false,0,581,2,0,1,78689,WMM1,896024,false,false,916,image-keyboard-response,25
true,8,1,1,1,true,z,false,true,0.0-2.0-0.30-0.277-3.277,0,0,0,90,false,stim,false,0,664,2,0,1,78689,WMM1,898227,false,false,919,image-keyboard-response,26
true,8,2,1,2,true,d,false,true,0.0-2.0-0.30-0.278-3.278,0,0,0,68,false,stim,false,1,556,2,0,2,78689,WMM1,900320,false,false,922,image-keyboard-response,27
true,8,1,1,1,true,z,false,false,0.0-2.0-0.31-0.279-3.279,0,0,0,90,false,stim,false,0,391,2,0,1,78689,WMM1,902255,false,true,925,image-keyboard-response,28
true,8,2,1,2,true,d,false,true,0.0-2.0-0.31-0.280-3.280,0,0,0,68,false,stim,false,1,1556,2,0,2,78689,WMM1,905361,false,false,928,image-keyboard-response,29
true,8,1,1,1,true,z,false,true,0.0-2.0-0.31-0.281-3.281,0,0,0,90,false,stim,false,0,690,2,0,1,78689,WMM1,907596,false,false,931,image-keyboard-response,30
true,8,2,1,2,true,d,false,true,0.0-2.0-0.31-0.282-3.282,0,0,0,68,false,stim,false,1,901,2,0,2,78689,WMM1,910036,false,false,934,image-keyboard-response,31
true,8,0,1,2,false,d,true,false,0.0-2.0-0.31-0.283-3.283,0,0,0,81,false,stim,false,1,626,2,0,0,78689,WMM1,912192,false,false,937,image-keyboard-response,32
true,8,1,1,2,false,d,false,false,0.0-2.0-0.31-0.284-3.284,0,0,0,90,false,stim,true,1,558,2,0,2,78689,WMM1,914284,false,false,940,image-keyboard-response,33
true,8,2,1,1,false,z,true,false,0.0-2.0-0.31-0.285-3.285,0,0,0,68,false,stim,false,0,1810,2,0,1,78689,WMM1,917637,false,false,943,image-keyboard-response,34
true,8,1,1,2,false,d,false,false,0.0-2.0-0.31-0.286-3.286,0,0,0,90,false,stim,true,1,1145,2,0,0,78689,WMM1,920333,false,false,946,image-keyboard-response,35
true,8,2,1,2,true,d,false,true,0.0-2.0-0.31-0.287-3.287,0,0,0,68,false,stim,false,1,502,2,0,0,78689,WMM1,922381,false,false,949,image-keyboard-response,36
true,8,2,1,1,false,z,true,false,0.0-2.0-0.32-0.288-3.288,0,0,0,68,false,stim,false,0,694,2,0,1,78689,WMM1,924613,false,false,952,image-keyboard-response,37
true,8,1,1,2,false,d,false,true,0.0-2.0-0.32-0.289-3.289,0,0,0,90,false,stim,true,1,701,2,0,0,78689,WMM1,926860,false,true,955,image-keyboard-response,38
true,8,2,1,2,true,d,false,true,0.0-2.0-0.32-0.290-3.290,0,0,0,68,false,stim,false,1,1883,2,0,2,78689,WMM1,930282,false,false,958,image-keyboard-response,39
true,8,1,1,1,true,z,false,true,0.0-2.0-0.32-0.291-3.291,0,0,0,90,false,stim,false,0,890,2,0,1,78689,WMM1,932710,false,false,961,image-keyboard-response,40
true,8,2,1,2,true,d,false,true,0.0-2.0-0.32-0.292-3.292,0,0,0,68,false,stim,false,1,602,2,0,2,78689,WMM1,934864,false,false,964,image-keyboard-response,41
true,8,1,1,2,false,d,false,false,0.0-2.0-0.32-0.293-3.293,0,0,0,90,false,stim,true,1,638,2,0,2,78689,WMM1,937038,false,false,967,image-keyboard-response,42
true,8,1,1,2,false,d,false,false,0.0-2.0-0.32-0.294-3.294,0,0,0,90,false,stim,true,1,1214,2,0,0,78689,WMM1,939784,false,false,970,image-keyboard-response,43
true,8,0,1,2,false,d,true,false,0.0-2.0-0.32-0.295-3.295,0,0,0,81,false,stim,false,1,704,2,0,0,78689,WMM1,942037,false,false,973,image-keyboard-response,44
true,8,2,1,1,false,z,true,false,0.0-2.0-0.32-0.296-3.296,0,0,0,68,false,stim,false,0,608,2,0,1,78689,WMM1,944180,false,false,976,image-keyboard-response,45
true,8,1,1,1,true,z,false,true,0.0-2.0-0.33-0.297-3.297,0,0,0,90,false,stim,false,0,1238,2,0,1,78689,WMM1,946950,false,false,979,image-keyboard-response,46
true,8,1,1,2,false,d,false,false,0.0-2.0-0.33-0.298-3.298,0,0,0,90,false,stim,true,1,1044,2,0,2,78689,WMM1,949529,false,false,982,image-keyboard-response,47
true,8,0,1,2,false,d,true,false,0.0-2.0-0.33-0.299-3.299,0,0,0,81,false,stim,false,1,817,2,0,2,78689,WMM1,951891,false,false,985,image-keyboard-response,48
true,8,2,1,2,true,d,false,false,0.0-2.0-0.33-0.300-3.300,0,0,0,68,false,stim,false,1,806,2,0,0,78689,WMM1,954230,false,true,988,image-keyboard-response,49
true,8,1,1,2,false,d,false,false,0.0-2.0-0.33-0.301-3.301,0,0,0,90,false,stim,true,1,731,2,0,0,78689,WMM1,956497,false,false,991,image-keyboard-response,50
true,8,0,1,2,false,d,true,false,0.0-2.0-0.33-0.302-3.302,0,0,0,81,false,stim,false,1,1327,2,0,2,78689,WMM1,959372,false,false,994,image-keyboard-response,51
true,8,1,1,2,false,d,false,false,0.0-2.0-0.33-0.303-3.303,0,0,0,90,false,stim,true,1,715,2,0,0,78689,WMM1,961612,false,false,997,image-keyboard-response,52
true,8,1,1,1,true,z,false,true,0.0-2.0-0.33-0.304-3.304,0,0,0,90,false,stim,false,0,823,2,0,1,78689,WMM1,963979,false,false,1000,image-keyboard-response,53
true,8,1,1,1,true,z,false,true,0.0-2.0-0.33-0.305-3.305,0,0,0,90,false,stim,false,0,857,2,0,1,78689,WMM1,966394,false,false,1003,image-keyboard-response,54
true,8,1,1,1,true,z,false,true,0.0-2.0-0.34-0.306-3.306,0,0,0,90,false,stim,false,0,632,2,0,1,78689,WMM1,968558,false,false,1006,image-keyboard-response,55
true,8,2,1,2,true,d,false,false,0.0-2.0-0.34-0.307-3.307,0,0,0,68,false,stim,false,1,544,2,0,2,78689,WMM1,970631,false,true,1009,image-keyboard-response,56
true,8,1,1,2,false,d,false,false,0.0-2.0-0.34-0.308-3.308,0,0,0,90,false,stim,true,1,764,2,0,2,78689,WMM1,972922,false,false,1012,image-keyboard-response,57
true,8,0,1,2,false,d,true,true,0.0-2.0-0.34-0.309-3.309,0,0,0,81,false,stim,false,1,476,2,0,2,78689,WMM1,974925,false,true,1015,image-keyboard-response,58
true,8,1,1,2,false,d,false,false,0.0-2.0-0.34-0.310-3.310,0,0,0,90,false,stim,true,1,1170,2,0,0,78689,WMM1,977640,false,false,1018,image-keyboard-response,59
true,8,2,1,2,true,d,false,true,0.0-2.0-0.34-0.311-3.311,0,0,0,68,false,stim,false,1,607,2,0,0,78689,WMM1,979778,false,false,1021,image-keyboard-response,60
true,9,1,2,2,false,d,false,true,0.0-2.0-0.34-0.312-3.312,0,0,0,90,true,stim,true,1,850,2,0,1,78689,WMM1,982160,false,true,1024,image-keyboard-response,1
true,9,2,2,0,false,q,false,false,0.0-2.0-0.34-0.313-3.313,0,0,0,68,false,stim,true,2,548,2,0,0,78689,WMM1,984239,false,false,1027,image-keyboard-response,2
true,9,0,2,2,false,d,true,true,0.0-2.0-0.34-0.314-3.314,0,0,0,81,false,stim,false,1,1500,2,0,1,78689,WMM1,987272,false,true,1030,image-keyboard-response,3
true,9,0,2,1,false,z,true,false,0.0-2.0-0.35-0.315-3.315,0,0,0,81,false,stim,false,2,1374,2,0,2,78689,WMM1,990185,false,false,1033,image-keyboard-response,4
true,9,2,2,1,false,z,false,false,0.0-2.0-0.35-0.316-3.316,0,0,0,68,false,stim,true,2,2028,2,0,2,78689,WMM1,993728,false,false,1036,image-keyboard-response,5
true,9,1,2,2,false,d,false,false,0.0-2.0-0.35-0.317-3.317,0,0,0,90,false,stim,true,1,2351,2,0,1,78689,WMM1,997614,false,false,1039,image-keyboard-response,6
true,9,2,2,0,false,q,false,false,0.0-2.0-0.35-0.318-3.318,0,0,0,68,false,stim,true,2,1815,2,0,0,78689,WMM1,1000959,false,false,1042,image-keyboard-response,7
true,9,2,2,0,false,q,false,false,0.0-2.0-0.35-0.319-3.319,0,0,0,68,false,stim,true,2,1175,2,0,0,78689,WMM1,1003659,false,false,1045,image-keyboard-response,8
true,9,1,2,2,false,d,false,false,0.0-2.0-0.35-0.320-3.320,0,0,0,90,false,stim,true,1,1700,2,0,1,78689,WMM1,1006896,false,false,1048,image-keyboard-response,9
true,9,1,2,1,true,z,false,true,0.0-2.0-0.35-0.321-3.321,0,0,0,90,false,stim,false,2,1830,2,0,2,78689,WMM1,1010265,false,false,1051,image-keyboard-response,10
true,9,2,2,0,false,q,false,false,0.0-2.0-0.35-0.322-3.322,0,0,0,68,false,stim,true,2,1550,2,0,0,78689,WMM1,1013345,false,false,1054,image-keyboard-response,11
true,9,0,2,2,false,d,true,false,0.0-2.0-0.35-0.323-3.323,0,0,0,81,false,stim,false,1,1072,2,0,1,78689,WMM1,1015948,false,false,1057,image-keyboard-response,12
true,9,0,2,0,true,q,false,true,0.0-2.0-0.36-0.324-3.324,0,0,0,81,false,stim,false,2,1081,2,0,0,78689,WMM1,1018558,false,false,1060,image-keyboard-response,13
true,9,0,2,0,true,q,false,true,0.0-2.0-0.36-0.325-3.325,0,0,0,81,false,stim,false,2,1115,2,0,0,78689,WMM1,1021212,false,false,1063,image-keyboard-response,14
true,9,0,2,1,false,z,true,true,0.0-2.0-0.36-0.326-3.326,0,0,0,81,false,stim,false,2,1094,2,0,2,78689,WMM1,1023842,false,true,1066,image-keyboard-response,15
true,9,0,2,1,false,z,true,false,0.0-2.0-0.36-0.327-3.327,0,0,0,81,false,stim,false,2,613,2,0,2,78689,WMM1,1025981,false,false,1069,image-keyboard-response,16
true,9,1,2,2,false,d,false,false,0.0-2.0-0.36-0.328-3.328,0,0,0,90,false,stim,true,1,1495,2,0,1,78689,WMM1,1029005,false,false,1072,image-keyboard-response,17
true,9,1,2,2,false,d,false,false,0.0-2.0-0.36-0.329-3.329,0,0,0,90,false,stim,true,1,886,2,0,1,78689,WMM1,1031437,false,false,1075,image-keyboard-response,18
true,9,2,2,2,true,d,false,true,0.0-2.0-0.36-0.330-3.330,0,0,0,68,false,stim,false,1,400,2,0,1,78689,WMM1,1033381,false,false,1078,image-keyboard-response,19
true,9,0,2,1,false,z,true,false,0.0-2.0-0.36-0.331-3.331,0,0,0,81,false,stim,false,2,1898,2,0,2,78689,WMM1,1036808,false,false,1081,image-keyboard-response,20
true,9,2,2,0,false,q,false,false,0.0-2.0-0.36-0.332-3.332,0,0,0,68,false,stim,true,2,671,2,0,0,78689,WMM1,1039022,false,false,1084,image-keyboard-response,21
true,9,0,2,1,false,z,true,false,0.0-2.0-0.37-0.333-3.333,0,0,0,81,false,stim,false,2,1564,2,0,2,78689,WMM1,1042126,false,false,1087,image-keyboard-response,22
true,9,1,2,0,false,q,true,false,0.0-2.0-0.37-0.334-3.334,0,0,0,90,false,stim,false,2,1291,2,0,0,78689,WMM1,1044953,false,false,1090,image-keyboard-response,23
true,9,2,2,2,true,d,false,false,0.0-2.0-0.37-0.335-3.335,0,0,0,68,false,stim,false,1,1132,2,0,1,78689,WMM1,1047635,false,true,1093,image-keyboard-response,24
true,9,0,2,0,true,q,false,true,0.0-2.0-0.37-0.336-3.336,0,0,0,81,false,stim,false,2,876,2,0,0,78689,WMM1,1050048,false,false,1096,image-keyboard-response,25
true,9,0,2,0,true,q,false,true,0.0-2.0-0.37-0.337-3.337,0,0,0,81,false,stim,false,2,436,2,0,0,78689,WMM1,1052031,false,false,1099,image-keyboard-response,26
true,9,0,2,1,false,z,true,false,0.0-2.0-0.37-0.338-3.338,0,0,0,81,false,stim,false,2,1151,2,0,2,78689,WMM1,1054755,false,false,1102,image-keyboard-response,27
true,9,1,2,2,false,d,false,false,0.0-2.0-0.37-0.339-3.339,0,0,0,90,false,stim,true,1,1395,2,0,1,78689,WMM1,1057689,false,false,1105,image-keyboard-response,28
true,9,2,2,1,false,z,false,false,0.0-2.0-0.37-0.340-3.340,0,0,0,68,false,stim,true,2,1129,2,0,2,78689,WMM1,1060365,false,false,1108,image-keyboard-response,29
true,9,1,2,2,false,d,false,false,0.0-2.0-0.37-0.341-3.341,0,0,0,90,false,stim,true,1,1020,2,0,1,78689,WMM1,1062937,false,false,1111,image-keyboard-response,30
true,9,0,2,0,true,q,false,true,0.0-2.0-0.38-0.342-3.342,0,0,0,81,false,stim,false,2,726,2,0,0,78689,WMM1,1065203,false,false,1114,image-keyboard-response,31
true,9,2,2,2,true,d,false,true,0.0-2.0-0.38-0.343-3.343,0,0,0,68,false,stim,false,1,1319,2,0,1,78689,WMM1,1068066,false,false,1117,image-keyboard-response,32
true,9,2,2,1,false,z,false,false,0.0-2.0-0.38-0.344-3.344,0,0,0,68,false,stim,true,2,1076,2,0,2,78689,WMM1,1070694,false,false,1120,image-keyboard-response,33
true,9,0,2,1,false,z,true,false,0.0-2.0-0.38-0.345-3.345,0,0,0,81,false,stim,false,2,547,2,0,2,78689,WMM1,1072786,false,false,1123,image-keyboard-response,34
true,9,2,2,2,true,d,false,true,0.0-2.0-0.38-0.346-3.346,0,0,0,68,false,stim,false,1,853,2,0,1,78689,WMM1,1075172,false,false,1126,image-keyboard-response,35
true,9,0,2,0,true,q,false,true,0.0-2.0-0.38-0.347-3.347,0,0,0,81,false,stim,false,2,1540,2,0,0,78689,WMM1,1078259,false,false,1129,image-keyboard-response,36
true,9,2,2,2,true,d,false,true,0.0-2.0-0.38-0.348-3.348,0,0,0,68,false,stim,false,1,1706,2,0,1,78689,WMM1,1081506,false,false,1132,image-keyboard-response,37
true,9,2,2,1,false,z,false,true,0.0-2.0-0.38-0.349-3.349,0,0,0,68,false,stim,true,2,1403,2,0,2,78689,WMM1,1084443,false,true,1135,image-keyboard-response,38
true,9,0,2,0,true,q,false,true,0.0-2.0-0.38-0.350-3.350,0,0,0,81,false,stim,false,2,752,2,0,0,78689,WMM1,1086733,false,false,1138,image-keyboard-response,39
true,9,2,2,2,true,d,false,true,0.0-2.0-0.39-0.351-3.351,0,0,0,68,false,stim,false,1,2661,2,0,1,78689,WMM1,1090943,false,false,1141,image-keyboard-response,40
true,9,0,2,0,true,q,false,true,0.0-2.0-0.39-0.352-3.352,0,0,0,81,false,stim,false,2,543,2,0,0,78689,WMM1,1093026,false,false,1144,image-keyboard-response,41
true,9,2,2,1,false,z,false,false,0.0-2.0-0.39-0.353-3.353,0,0,0,68,false,stim,true,2,1336,2,0,2,78689,WMM1,1095896,false,false,1147,image-keyboard-response,42
true,9,0,2,1,false,z,true,false,0.0-2.0-0.39-0.354-3.354,0,0,0,81,false,stim,false,2,1085,2,0,2,78689,WMM1,1098519,false,false,1150,image-keyboard-response,43
true,9,1,2,2,false,d,false,false,0.0-2.0-0.39-0.355-3.355,0,0,0,90,false,stim,true,1,2213,2,0,1,78689,WMM1,1102257,false,false,1153,image-keyboard-response,44
true,9,0,2,0,true,q,false,true,0.0-2.0-0.39-0.356-3.356,0,0,0,81,false,stim,false,2,1038,2,0,0,78689,WMM1,1104844,false,false,1156,image-keyboard-response,45
true,9,2,2,1,false,z,false,false,0.0-2.0-0.39-0.357-3.357,0,0,0,68,false,stim,true,2,1266,2,0,2,78689,WMM1,1107651,false,false,1159,image-keyboard-response,46
true,9,0,2,2,false,d,true,true,0.0-2.0-0.39-0.358-3.358,0,0,0,81,false,stim,false,1,2087,2,0,1,78689,WMM1,1111284,false,true,1162,image-keyboard-response,47
true,9,1,2,0,false,q,true,false,0.0-2.0-0.39-0.359-3.359,0,0,0,90,false,stim,false,2,1390,2,0,0,78689,WMM1,1114228,false,false,1165,image-keyboard-response,48
true,9,0,2,2,false,d,true,false,0.0-2.0-0.40-0.360-3.360,0,0,0,81,false,stim,false,1,791,2,0,1,78689,WMM1,1116559,false,false,1168,image-keyboard-response,49
true,9,2,2,2,true,d,false,true,0.0-2.0-0.40-0.361-3.361,0,0,0,68,false,stim,false,1,1666,2,0,1,78689,WMM1,1119764,false,false,1171,image-keyboard-response,50
true,9,0,2,1,false,z,true,true,0.0-2.0-0.40-0.362-3.362,0,0,0,81,false,stim,false,2,713,2,0,2,78689,WMM1,1122011,false,true,1174,image-keyboard-response,51
true,9,1,2,0,false,q,true,false,0.0-2.0-0.40-0.363-3.363,0,0,0,90,false,stim,false,2,1000,2,0,0,78689,WMM1,1124530,false,false,1177,image-keyboard-response,52
true,9,2,2,2,true,d,false,true,0.0-2.0-0.40-0.364-3.364,0,0,0,68,false,stim,false,1,733,2,0,1,78689,WMM1,1126803,false,false,1180,image-keyboard-response,53
true,9,2,2,1,false,z,false,false,0.0-2.0-0.40-0.365-3.365,0,0,0,68,false,stim,true,2,2170,2,0,2,78689,WMM1,1130501,false,false,1183,image-keyboard-response,54
true,9,0,2,1,false,z,true,false,0.0-2.0-0.40-0.366-3.366,0,0,0,81,false,stim,false,2,1952,2,0,2,78689,WMM1,1133984,false,false,1186,image-keyboard-response,55
true,9,1,2,0,false,q,true,false,0.0-2.0-0.40-0.367-3.367,0,0,0,90,false,stim,false,2,691,2,0,0,78689,WMM1,1136214,false,false,1189,image-keyboard-response,56
true,9,2,2,0,false,q,false,false,0.0-2.0-0.40-0.368-3.368,0,0,0,68,false,stim,true,2,1757,2,0,0,78689,WMM1,1139498,false,false,1192,image-keyboard-response,57
true,9,0,2,2,false,d,true,false,0.0-2.0-0.41-0.369-3.369,0,0,0,81,false,stim,false,1,1368,2,0,1,78689,WMM1,1142412,false,false,1195,image-keyboard-response,58
true,9,1,2,0,false,q,true,false,0.0-2.0-0.41-0.370-3.370,0,0,0,90,false,stim,false,2,916,2,0,0,78689,WMM1,1144859,false,false,1198,image-keyboard-response,59
true,9,2,2,1,false,z,false,false,0.0-2.0-0.41-0.371-3.371,0,0,0,68,false,stim,true,2,1285,2,0,2,78689,WMM1,1147718,false,false,1201,image-keyboard-response,60
true,10,1,1,0,false,q,false,false,0.0-2.0-0.41-0.372-3.372,0,0,0,90,true,stim,true,1,439,2,0,2,78689,WMM1,1149703,false,false,1204,image-keyboard-response,1
true,10,0,1,0,true,q,false,true,0.0-2.0-0.41-0.373-3.373,0,0,0,81,false,stim,false,1,1219,2,0,2,78689,WMM1,1152463,false,false,1207,image-keyboard-response,2
true,10,1,1,0,false,q,true,false,0.0-2.0-0.41-0.374-3.374,0,0,0,90,false,stim,false,2,2179,2,0,1,78689,WMM1,1156173,false,false,1210,image-keyboard-response,3
true,10,0,1,1,false,z,false,true,0.0-2.0-0.41-0.375-3.375,0,0,0,81,false,stim,true,0,632,2,0,0,78689,WMM1,1158348,false,true,1213,image-keyboard-response,4
true,10,0,1,1,false,z,false,false,0.0-2.0-0.41-0.376-3.376,0,0,0,81,false,stim,true,0,422,2,0,0,78689,WMM1,1160298,false,false,1216,image-keyboard-response,5
true,10,1,1,0,false,q,true,false,0.0-2.0-0.41-0.377-3.377,0,0,0,90,false,stim,false,2,2848,2,0,1,78689,WMM1,1164685,false,false,1219,image-keyboard-response,6
true,10,1,1,0,false,q,false,false,0.0-2.0-0.42-0.378-3.378,0,0,0,90,false,stim,true,1,2273,2,0,2,78689,WMM1,1168500,false,false,1222,image-keyboard-response,7
true,10,2,1,1,false,z,true,false,0.0-2.0-0.42-0.379-3.379,0,0,0,68,false,stim,false,0,767,2,0,0,78689,WMM1,1170805,false,false,1225,image-keyboard-response,8
true,10,1,1,1,true,z,false,true,0.0-2.0-0.42-0.380-3.380,0,0,0,90,false,stim,false,0,1474,2,0,0,78689,WMM1,1173812,false,false,1228,image-keyboard-response,9
true,10,0,1,0,true,q,false,true,0.0-2.0-0.42-0.381-3.381,0,0,0,81,false,stim,false,1,1200,2,0,2,78689,WMM1,1176549,false,false,1231,image-keyboard-response,10
true,10,2,1,0,false,q,false,true,0.0-2.0-0.42-0.382-3.382,0,0,0,68,false,stim,true,2,1177,2,0,1,78689,WMM1,1179266,false,true,1234,image-keyboard-response,11
true,10,2,1,0,false,q,false,true,0.0-2.0-0.42-0.383-3.383,0,0,0,68,false,stim,true,2,1060,2,0,1,78689,WMM1,1181871,false,true,1237,image-keyboard-response,12
true,10,1,1,0,false,q,false,false,0.0-2.0-0.42-0.384-3.384,0,0,0,90,false,stim,true,1,1526,2,0,2,78689,WMM1,1184940,false,false,1240,image-keyboard-response,13
true,10,0,1,1,false,z,false,false,0.0-2.0-0.42-0.385-3.385,0,0,0,81,false,stim,true,0,755,2,0,0,78689,WMM1,1187234,false,false,1243,image-keyboard-response,14
true,10,2,1,0,false,q,false,true,0.0-2.0-0.42-0.386-3.386,0,0,0,68,false,stim,true,2,2540,2,0,1,78689,WMM1,1191316,false,true,1246,image-keyboard-response,15
true,10,1,1,1,true,z,false,false,0.0-2.0-0.43-0.387-3.387,0,0,0,90,false,stim,false,0,803,2,0,0,78689,WMM1,1193657,false,true,1249,image-keyboard-response,16
true,10,0,1,1,false,z,false,false,0.0-2.0-0.43-0.388-3.388,0,0,0,81,false,stim,true,0,922,2,0,0,78689,WMM1,1196116,false,false,1252,image-keyboard-response,17
true,10,2,1,0,false,q,false,false,0.0-2.0-0.43-0.389-3.389,0,0,0,68,false,stim,true,2,1062,2,0,1,78689,WMM1,1198706,false,false,1255,image-keyboard-response,18
true,10,2,1,0,false,q,true,false,0.0-2.0-0.43-0.390-3.390,0,0,0,68,false,stim,false,1,2871,2,0,2,78689,WMM1,1203116,false,false,1258,image-keyboard-response,19
false,10,-1,1,1,false,z,true,false,0.0-2.0-0.43-0.391-3.391,0,0,0,,false,stim,false,0,,2,0,0,78689,WMM1,1207644,false,false,1261,image-keyboard-response,20
true,10,1,1,0,false,q,false,true,0.0-2.0-0.43-0.392-3.392,0,0,0,90,false,stim,true,1,800,2,0,2,78689,WMM1,1209987,false,true,1264,image-keyboard-response,21
true,10,1,1,0,false,q,false,false,0.0-2.0-0.43-0.393-3.393,0,0,0,90,false,stim,true,1,606,2,0,2,78689,WMM1,1212133,false,false,1267,image-keyboard-response,22
true,10,1,1,0,false,q,true,false,0.0-2.0-0.43-0.394-3.394,0,0,0,90,false,stim,false,2,2699,2,0,1,78689,WMM1,1216379,false,false,1270,image-keyboard-response,23
true,10,0,1,0,true,q,false,true,0.0-2.0-0.43-0.395-3.395,0,0,0,81,false,stim,false,2,1165,2,0,1,78689,WMM1,1219084,false,false,1273,image-keyboard-response,24
true,10,2,1,1,false,z,true,false,0.0-2.0-0.44-0.396-3.396,0,0,0,68,false,stim,false,0,1461,2,0,0,78689,WMM1,1222090,false,false,1276,image-keyboard-response,25
true,10,1,1,1,true,z,false,true,0.0-2.0-0.44-0.397-3.397,0,0,0,90,false,stim,false,0,1137,2,0,0,78689,WMM1,1224757,false,false,1279,image-keyboard-response,26
true,10,0,1,0,true,q,false,true,0.0-2.0-0.44-0.398-3.398,0,0,0,81,false,stim,false,1,2085,2,0,2,78689,WMM1,1228386,false,false,1282,image-keyboard-response,27
true,10,0,1,0,true,q,false,true,0.0-2.0-0.44-0.399-3.399,0,0,0,81,false,stim,false,2,712,2,0,1,78689,WMM1,1230633,false,false,1285,image-keyboard-response,28
true,10,0,1,0,true,q,false,true,0.0-2.0-0.44-0.400-3.400,0,0,0,81,false,stim,false,1,1238,2,0,2,78689,WMM1,1233421,false,false,1288,image-keyboard-response,29
true,10,1,1,0,false,q,true,false,0.0-2.0-0.44-0.401-3.401,0,0,0,90,false,stim,false,2,1122,2,0,1,78689,WMM1,1236094,false,false,1291,image-keyboard-response,30
true,10,1,1,1,true,z,false,true,0.0-2.0-0.44-0.402-3.402,0,0,0,90,false,stim,false,0,1546,2,0,0,78689,WMM1,1239188,false,false,1294,image-keyboard-response,31
true,10,0,1,0,true,q,false,true,0.0-2.0-0.44-0.403-3.403,0,0,0,81,false,stim,false,2,1431,2,0,1,78689,WMM1,1242154,false,false,1297,image-keyboard-response,32
true,10,0,1,0,true,q,false,true,0.0-2.0-0.44-0.404-3.404,0,0,0,81,false,stim,false,1,1259,2,0,2,78689,WMM1,1244964,false,false,1300,image-keyboard-response,33
true,10,0,1,0,true,q,false,true,0.0-2.0-0.45-0.405-3.405,0,0,0,81,false,stim,false,2,992,2,0,1,78689,WMM1,1247546,false,false,1303,image-keyboard-response,34
true,10,0,1,0,true,q,false,true,0.0-2.0-0.45-0.406-3.406,0,0,0,81,false,stim,false,1,609,2,0,2,78689,WMM1,1249703,false,false,1306,image-keyboard-response,35
true,10,0,1,0,true,q,false,true,0.0-2.0-0.45-0.407-3.407,0,0,0,81,false,stim,false,2,1227,2,0,1,78689,WMM1,1252471,false,false,1309,image-keyboard-response,36
true,10,0,1,1,false,z,false,false,0.0-2.0-0.45-0.408-3.408,0,0,0,81,false,stim,true,0,1754,2,0,0,78689,WMM1,1255760,false,false,1312,image-keyboard-response,37
true,10,1,1,0,false,q,true,false,0.0-2.0-0.45-0.409-3.409,0,0,0,90,false,stim,false,2,723,2,0,1,78689,WMM1,1258019,false,false,1315,image-keyboard-response,38
true,10,2,1,1,false,z,true,false,0.0-2.0-0.45-0.410-3.410,0,0,0,68,false,stim,false,0,957,2,0,0,78689,WMM1,1260514,false,false,1318,image-keyboard-response,39
true,10,1,1,0,false,q,false,false,0.0-2.0-0.45-0.411-3.411,0,0,0,90,false,stim,true,1,921,2,0,2,78689,WMM1,1262978,false,false,1321,image-keyboard-response,40
true,10,1,1,0,false,q,false,true,0.0-2.0-0.45-0.412-3.412,0,0,0,90,false,stim,true,1,570,2,0,2,78689,WMM1,1265088,false,true,1324,image-keyboard-response,41
true,10,0,1,1,false,z,false,false,0.0-2.0-0.45-0.413-3.413,0,0,0,81,false,stim,true,0,983,2,0,0,78689,WMM1,1267602,false,false,1327,image-keyboard-response,42
true,10,1,1,0,false,q,false,false,0.0-2.0-0.46-0.414-3.414,0,0,0,90,false,stim,true,1,548,2,0,2,78689,WMM1,1269688,false,false,1330,image-keyboard-response,43
true,10,0,1,1,false,z,false,false,0.0-2.0-0.46-0.415-3.415,0,0,0,81,false,stim,true,0,1065,2,0,0,78689,WMM1,1272283,false,false,1333,image-keyboard-response,44
true,11,2,2,2,true,d,false,true,0.0-2.0-0.46-0.416-3.416,0,0,0,68,true,stim,false,0,1130,2,0,1,78689,WMM1,1274950,false,false,1336,image-keyboard-response,1
true,11,2,2,2,true,d,false,true,0.0-2.0-0.46-0.417-3.417,0,0,0,68,false,stim,false,0,562,2,0,1,78689,WMM1,1277052,false,false,1339,image-keyboard-response,2
true,11,1,2,0,false,q,false,false,0.0-2.0-0.46-0.418-3.418,0,0,0,90,false,stim,true,1,1492,2,0,0,78689,WMM1,1280082,false,false,1342,image-keyboard-response,3
true,11,2,2,1,false,z,true,false,0.0-2.0-0.46-0.419-3.419,0,0,0,68,false,stim,false,0,1187,2,0,2,78689,WMM1,1282789,false,false,1345,image-keyboard-response,4
true,11,0,2,1,false,z,false,false,0.0-2.0-0.46-0.420-3.420,0,0,0,81,false,stim,true,0,535,2,0,2,78689,WMM1,1284847,false,false,1348,image-keyboard-response,5
true,11,1,2,0,false,q,false,false,0.0-2.0-0.46-0.421-3.421,0,0,0,90,false,stim,true,1,1063,2,0,0,78689,WMM1,1287455,false,false,1351,image-keyboard-response,6
true,11,2,2,2,true,d,false,true,0.0-2.0-0.46-0.422-3.422,0,0,0,68,false,stim,false,0,519,2,0,1,78689,WMM1,1289513,false,false,1354,image-keyboard-response,7
true,11,1,2,0,false,q,false,false,0.0-2.0-0.47-0.423-3.423,0,0,0,90,false,stim,true,1,1069,2,0,0,78689,WMM1,1292112,false,false,1357,image-keyboard-response,8
true,11,0,2,1,false,z,false,true,0.0-2.0-0.47-0.424-3.424,0,0,0,81,false,stim,true,0,421,2,0,2,78689,WMM1,1294065,false,true,1360,image-keyboard-response,9
true,11,0,2,1,false,z,false,false,0.0-2.0-0.47-0.425-3.425,0,0,0,81,false,stim,true,0,480,2,0,2,78689,WMM1,1296083,false,false,1363,image-keyboard-response,10
true,11,2,2,2,true,d,false,true,0.0-2.0-0.47-0.426-3.426,0,0,0,68,false,stim,false,0,816,2,0,1,78689,WMM1,1298440,false,false,1366,image-keyboard-response,11
true,11,2,2,2,true,d,false,true,0.0-2.0-0.47-0.427-3.427,0,0,0,68,false,stim,false,0,612,2,0,1,78689,WMM1,1300596,false,false,1369,image-keyboard-response,12
true,11,1,2,1,true,z,false,true,0.0-2.0-0.47-0.428-3.428,0,0,0,90,false,stim,false,0,841,2,0,2,78689,WMM1,1302966,false,false,1372,image-keyboard-response,13
true,11,0,2,0,true,q,false,true,0.0-2.0-0.47-0.429-3.429,0,0,0,81,false,stim,false,1,690,2,0,0,78689,WMM1,1305194,false,false,1375,image-keyboard-response,14
true,11,1,2,2,false,d,true,false,0.0-2.0-0.47-0.430-3.430,0,0,0,90,false,stim,false,0,693,2,0,1,78689,WMM1,1307430,false,false,1378,image-keyboard-response,15
true,11,0,2,0,true,q,false,true,0.0-2.0-0.47-0.431-3.431,0,0,0,81,false,stim,false,1,549,2,0,0,78689,WMM1,1309526,false,false,1381,image-keyboard-response,16
true,11,0,2,2,false,d,false,false,0.0-2.0-0.48-0.432-3.432,0,0,0,81,false,stim,true,0,692,2,0,1,78689,WMM1,1311748,false,false,1384,image-keyboard-response,17
true,11,1,2,2,false,d,true,false,0.0-2.0-0.48-0.433-3.433,0,0,0,90,false,stim,false,0,440,2,0,1,78689,WMM1,1313718,false,false,1387,image-keyboard-response,18
true,11,0,2,0,true,q,false,true,0.0-2.0-0.48-0.434-3.434,0,0,0,81,false,stim,false,1,617,2,0,0,78689,WMM1,1315855,false,false,1390,image-keyboard-response,19
true,11,2,2,2,true,d,false,true,0.0-2.0-0.48-0.435-3.435,0,0,0,68,false,stim,false,0,455,2,0,1,78689,WMM1,1317854,false,false,1393,image-keyboard-response,20
true,11,1,2,1,true,z,false,true,0.0-2.0-0.48-0.436-3.436,0,0,0,90,false,stim,false,0,597,2,0,2,78689,WMM1,1320006,false,false,1396,image-keyboard-response,21
true,11,0,2,0,true,q,false,true,0.0-2.0-0.48-0.437-3.437,0,0,0,81,false,stim,false,1,635,2,0,0,78689,WMM1,1322186,false,false,1399,image-keyboard-response,22
true,11,0,2,0,true,q,false,true,0.0-2.0-0.48-0.438-3.438,0,0,0,81,false,stim,false,1,560,2,0,0,78689,WMM1,1324330,false,false,1402,image-keyboard-response,23
true,11,1,2,1,true,z,false,true,0.0-2.0-0.48-0.439-3.439,0,0,0,90,false,stim,false,0,1171,2,0,2,78689,WMM1,1327041,false,false,1405,image-keyboard-response,24
true,11,1,2,1,true,z,false,true,0.0-2.0-0.48-0.440-3.440,0,0,0,90,false,stim,false,0,1057,2,0,2,78689,WMM1,1329648,false,false,1408,image-keyboard-response,25
true,11,1,2,1,true,z,false,true,0.0-2.0-0.49-0.441-3.441,0,0,0,90,false,stim,false,0,573,2,0,2,78689,WMM1,1331764,false,false,1411,image-keyboard-response,26
true,11,0,2,0,true,q,false,true,0.0-2.0-0.49-0.442-3.442,0,0,0,81,false,stim,false,1,608,2,0,0,78689,WMM1,1333920,false,false,1414,image-keyboard-response,27
true,11,1,2,1,true,z,false,true,0.0-2.0-0.49-0.443-3.443,0,0,0,90,false,stim,false,0,1062,2,0,2,78689,WMM1,1336525,false,false,1417,image-keyboard-response,28
true,11,2,2,2,true,d,false,true,0.0-2.0-0.49-0.444-3.444,0,0,0,68,false,stim,false,0,923,2,0,1,78689,WMM1,1338986,false,false,1420,image-keyboard-response,29
true,11,2,2,2,true,d,false,true,0.0-2.0-0.49-0.445-3.445,0,0,0,68,false,stim,false,0,1680,2,0,1,78689,WMM1,1342203,false,false,1423,image-keyboard-response,30
true,11,2,2,2,true,d,false,false,0.0-2.0-0.49-0.446-3.446,0,0,0,68,false,stim,false,0,503,2,0,1,78689,WMM1,1344236,false,true,1426,image-keyboard-response,31
true,11,1,2,0,false,q,false,false,0.0-2.0-0.49-0.447-3.447,0,0,0,90,false,stim,true,1,1769,2,0,0,78689,WMM1,1347544,false,false,1429,image-keyboard-response,32
true,11,0,2,1,false,z,false,false,0.0-2.0-0.49-0.448-3.448,0,0,0,81,false,stim,true,0,1836,2,1,2,78689,WMM1,1350920,false,false,1432,image-keyboard-response,33
true,11,1,2,0,false,q,false,false,0.0-2.0-0.49-0.449-3.449,0,0,0,90,false,stim,true,1,1391,2,0,0,78689,WMM1,1353857,false,false,1435,image-keyboard-response,34
true,11,2,2,2,true,d,false,true,0.0-2.0-0.50-0.450-3.450,0,0,0,68,false,stim,false,0,1487,2,0,1,78689,WMM1,1356873,false,false,1438,image-keyboard-response,35
true,11,1,2,1,true,z,false,true,0.0-2.0-0.50-0.451-3.451,0,0,0,90,false,stim,false,0,1482,2,1,2,78689,WMM1,1359890,false,false,1441,image-keyboard-response,36
true,11,1,2,2,false,d,true,false,0.0-2.0-0.50-0.452-3.452,0,0,0,90,false,stim,false,0,1441,2,0,1,78689,WMM1,1362869,false,false,1444,image-keyboard-response,37
true,11,1,2,1,true,z,false,true,0.0-2.0-0.50-0.453-3.453,0,0,0,90,false,stim,false,0,1053,2,1,2,78689,WMM1,1365461,false,false,1447,image-keyboard-response,38
true,11,0,2,2,false,d,false,false,0.0-2.0-0.50-0.454-3.454,0,0,0,81,false,stim,true,0,680,2,0,1,78689,WMM1,1367670,false,false,1450,image-keyboard-response,39
true,12,1,3,2,false,d,true,false,0.0-2.0-0.50-0.455-3.455,0,0,1,90,true,stim,false,0,537,2,0,0,78689,WMM1,1369745,false,false,1453,image-keyboard-response,1
true,12,2,3,2,true,d,false,false,0.0-2.0-0.50-0.456-3.456,0,0,1,68,false,stim,false,0,633,2,0,0,78689,WMM1,1371922,false,true,1456,image-keyboard-response,2
true,12,0,3,2,false,d,false,false,0.0-2.0-0.50-0.457-3.457,0,0,1,81,false,stim,true,0,729,2,0,0,78689,WMM1,1374180,false,false,1459,image-keyboard-response,3
true,12,1,3,1,true,z,false,true,0.0-2.0-0.50-0.458-3.458,0,0,1,90,false,stim,false,1,859,2,1,2,78689,WMM1,1376570,false,false,1462,image-keyboard-response,4
true,12,1,3,1,true,z,false,true,0.0-2.0-0.51-0.459-3.459,0,0,1,90,false,stim,false,1,684,2,1,2,78689,WMM1,1378795,false,false,1465,image-keyboard-response,5
true,12,1,3,1,true,z,false,true,0.0-2.0-0.51-0.460-3.460,0,0,1,90,false,stim,false,2,712,2,0,1,78689,WMM1,1381042,false,false,1468,image-keyboard-response,6
true,12,0,3,2,false,d,false,false,0.0-2.0-0.51-0.461-3.461,0,0,1,81,false,stim,true,0,611,2,0,0,78689,WMM1,1383183,false,false,1471,image-keyboard-response,7
true,12,1,3,2,false,d,true,false,0.0-2.0-0.51-0.462-3.462,0,0,1,90,false,stim,false,0,707,2,0,0,78689,WMM1,1385419,false,false,1474,image-keyboard-response,8
true,12,1,3,1,true,z,false,true,0.0-2.0-0.51-0.463-3.463,0,0,1,90,false,stim,false,2,466,2,0,1,78689,WMM1,1387418,false,false,1477,image-keyboard-response,9
true,12,2,3,1,false,z,true,false,0.0-2.0-0.51-0.464-3.464,0,0,1,68,false,stim,false,1,1220,2,1,2,78689,WMM1,1390173,false,false,1480,image-keyboard-response,10
true,12,1,3,2,false,d,true,false,0.0-2.0-0.51-0.465-3.465,0,0,1,90,false,stim,false,0,925,2,0,0,78689,WMM1,1392628,false,false,1483,image-keyboard-response,11
true,12,2,3,1,false,z,true,false,0.0-2.0-0.51-0.466-3.466,0,0,1,68,false,stim,false,1,1350,2,1,2,78689,WMM1,1395524,false,false,1486,image-keyboard-response,12
true,12,1,3,1,true,z,false,true,0.0-2.0-0.51-0.467-3.467,0,0,1,90,false,stim,false,2,1180,2,0,1,78689,WMM1,1398235,false,false,1489,image-keyboard-response,13
true,12,0,3,1,false,z,true,false,0.0-2.0-0.52-0.468-3.468,0,0,1,81,false,stim,false,1,1086,2,1,2,78689,WMM1,1400861,false,false,1492,image-keyboard-response,14
true,12,1,3,1,true,z,false,true,0.0-2.0-0.52-0.469-3.469,0,0,1,90,false,stim,false,1,471,2,1,2,78689,WMM1,1402876,false,false,1495,image-keyboard-response,15
true,12,1,3,2,false,d,true,false,0.0-2.0-0.52-0.470-3.470,0,0,1,90,false,stim,false,0,762,2,0,0,78689,WMM1,1405168,false,false,1498,image-keyboard-response,16
true,12,2,3,2,true,d,false,true,0.0-2.0-0.52-0.471-3.471,0,0,1,68,false,stim,false,0,582,2,0,0,78689,WMM1,1407328,false,false,1501,image-keyboard-response,17
true,12,1,3,1,true,z,false,true,0.0-2.0-0.52-0.472-3.472,0,0,1,90,false,stim,false,1,696,2,1,2,78689,WMM1,1409563,false,false,1504,image-keyboard-response,18
true,12,0,3,1,false,z,true,false,0.0-2.0-0.52-0.473-3.473,0,0,1,81,false,stim,false,2,542,2,0,1,78689,WMM1,1411640,false,false,1507,image-keyboard-response,19
true,12,1,3,1,true,z,false,true,0.0-2.0-0.52-0.474-3.474,0,0,1,90,false,stim,false,2,1423,2,0,1,78689,WMM1,1414601,false,false,1510,image-keyboard-response,20
true,12,2,3,2,true,d,false,true,0.0-2.0-0.52-0.475-3.475,0,0,1,68,false,stim,false,0,2403,2,0,0,78689,WMM1,1418552,false,false,1513,image-keyboard-response,21
true,12,1,3,1,true,z,false,true,0.0-2.0-0.52-0.476-3.476,0,0,1,90,false,stim,false,2,1402,2,0,1,78689,WMM1,1421503,false,false,1516,image-keyboard-response,22
true,12,1,3,1,true,z,false,true,0.0-2.0-0.53-0.477-3.477,0,0,1,90,false,stim,false,2,416,2,0,1,78689,WMM1,1423455,false,false,1519,image-keyboard-response,23
true,12,2,3,2,true,d,false,true,0.0-2.0-0.53-0.478-3.478,0,0,1,68,false,stim,false,0,1266,2,0,0,78689,WMM1,1426255,false,false,1522,image-keyboard-response,24
true,12,2,3,1,false,z,false,false,0.0-2.0-0.53-0.479-3.479,0,0,1,68,false,stim,true,2,953,2,0,1,78689,WMM1,1428742,false,false,1525,image-keyboard-response,25
true,12,1,3,1,true,z,false,false,0.0-2.0-0.53-0.480-3.480,0,0,1,90,false,stim,false,1,1639,2,0,2,78689,WMM1,1431920,false,true,1528,image-keyboard-response,26
true,12,2,3,1,false,z,false,false,0.0-2.0-0.53-0.481-3.481,0,0,1,68,false,stim,true,2,2406,2,0,1,78689,WMM1,1435859,false,false,1531,image-keyboard-response,27
true,12,0,3,1,false,z,true,false,0.0-2.0-0.53-0.482-3.482,0,0,1,81,false,stim,false,1,473,2,0,2,78689,WMM1,1437866,false,false,1534,image-keyboard-response,28
true,12,0,3,2,false,d,false,false,0.0-2.0-0.53-0.483-3.483,0,0,1,81,false,stim,true,0,920,2,0,0,78689,WMM1,1440323,false,false,1537,image-keyboard-response,29
true,12,0,3,2,false,d,false,false,0.0-2.0-0.53-0.484-3.484,0,0,1,81,false,stim,true,0,712,2,0,0,78689,WMM1,1442578,false,false,1540,image-keyboard-response,30
true,12,1,3,1,true,z,false,true,0.0-2.0-0.53-0.485-3.485,0,0,1,90,false,stim,false,1,560,2,0,2,78689,WMM1,1444673,false,false,1543,image-keyboard-response,31
true,12,2,3,2,true,d,false,true,0.0-2.0-0.54-0.486-3.486,0,0,1,68,false,stim,false,0,904,2,0,0,78689,WMM1,1447117,false,false,1546,image-keyboard-response,32
true,13,2,1,0,false,q,false,false,0.0-2.0-0.54-0.487-3.487,0,0,0,68,true,stim,true,2,2378,2,0,0,78689,WMM1,1451034,false,false,1549,image-keyboard-response,1
true,13,0,1,2,false,d,true,false,0.0-2.0-0.54-0.488-3.488,0,0,0,81,false,stim,false,1,920,2,0,1,78689,WMM1,1453496,false,false,1552,image-keyboard-response,2
true,13,1,1,2,false,d,false,true,0.0-2.0-0.54-0.489-3.489,0,0,0,90,false,stim,true,1,693,2,0,1,78689,WMM1,1455718,false,true,1555,image-keyboard-response,3
true,13,1,1,2,false,d,false,false,0.0-2.0-0.54-0.490-3.490,0,0,0,90,false,stim,true,1,513,2,0,1,78689,WMM1,1457760,false,false,1558,image-keyboard-response,4
true,13,2,1,0,false,q,false,false,0.0-2.0-0.54-0.491-3.491,0,0,0,68,false,stim,true,2,1130,2,0,0,78689,WMM1,1460418,false,false,1561,image-keyboard-response,5
true,13,0,1,2,false,d,true,false,0.0-2.0-0.54-0.492-3.492,0,0,0,81,false,stim,false,1,522,2,0,2,78689,WMM1,1462469,false,false,1564,image-keyboard-response,6
true,13,1,1,2,false,d,false,false,0.0-2.0-0.54-0.493-3.493,0,0,0,90,false,stim,true,1,620,2,0,2,78689,WMM1,1464628,false,false,1567,image-keyboard-response,7
true,13,2,1,2,true,d,false,true,0.0-2.0-0.54-0.494-3.494,0,0,0,68,false,stim,false,1,841,2,0,2,78689,WMM1,1467009,false,false,1570,image-keyboard-response,8
true,13,2,1,2,true,d,false,true,0.0-2.0-0.55-0.495-3.495,0,0,0,68,false,stim,false,1,388,2,0,2,78689,WMM1,1468937,false,false,1573,image-keyboard-response,9
true,13,1,1,0,false,q,true,false,0.0-2.0-0.55-0.496-3.496,0,0,0,90,false,stim,false,2,563,2,0,0,78689,WMM1,1471033,false,false,1576,image-keyboard-response,10
true,13,0,1,2,false,d,true,false,0.0-2.0-0.55-0.497-3.497,0,0,0,81,false,stim,false,1,732,2,0,1,78689,WMM1,1473299,false,false,1579,image-keyboard-response,11
true,13,2,1,2,true,d,false,true,0.0-2.0-0.55-0.498-3.498,0,0,0,68,false,stim,false,1,471,2,0,2,78689,WMM1,1475301,false,false,1582,image-keyboard-response,12
true,13,1,1,2,false,d,false,false,0.0-2.0-0.55-0.499-3.499,0,0,0,90,false,stim,true,1,1253,2,0,1,78689,WMM1,1478085,false,false,1585,image-keyboard-response,13
true,13,2,1,2,true,d,false,true,0.0-2.0-0.55-0.500-3.500,0,0,0,68,false,stim,false,1,1720,2,0,1,78689,WMM1,1481331,false,false,1588,image-keyboard-response,14
true,13,0,1,0,true,q,false,true,0.0-2.0-0.55-0.501-3.501,0,0,0,81,false,stim,false,2,671,2,0,0,78689,WMM1,1483542,false,false,1591,image-keyboard-response,15
true,13,0,1,0,true,q,false,true,0.0-2.0-0.55-0.502-3.502,0,0,0,81,false,stim,false,2,571,2,0,0,78689,WMM1,1485653,false,false,1594,image-keyboard-response,16
true,13,1,1,2,false,d,false,false,0.0-2.0-0.55-0.503-3.503,0,0,0,90,false,stim,true,1,860,2,0,2,78689,WMM1,1488053,false,false,1597,image-keyboard-response,17
true,13,2,1,2,true,d,false,false,0.0-2.0-0.56-0.504-3.504,0,0,0,68,false,stim,false,1,433,2,0,2,78689,WMM1,1490026,false,true,1600,image-keyboard-response,18
true,13,2,1,2,true,d,false,true,0.0-2.0-0.56-0.505-3.505,0,0,0,68,false,stim,false,1,1214,2,0,2,78689,WMM1,1492809,false,false,1603,image-keyboard-response,19
true,13,0,1,2,false,d,true,false,0.0-2.0-0.56-0.506-3.506,0,0,0,81,false,stim,false,1,770,2,0,1,78689,WMM1,1495125,false,false,1606,image-keyboard-response,20
true,13,2,1,2,true,d,false,true,0.0-2.0-0.56-0.507-3.507,0,0,0,68,false,stim,false,1,946,2,0,2,78689,WMM1,1497612,false,false,1609,image-keyboard-response,21
true,13,1,1,0,false,q,true,false,0.0-2.0-0.56-0.508-3.508,0,0,0,90,false,stim,false,2,1112,2,0,0,78689,WMM1,1500277,false,false,1612,image-keyboard-response,22
true,13,2,1,2,true,d,false,true,0.0-2.0-0.56-0.509-3.509,0,0,0,68,false,stim,false,1,931,2,0,1,78689,WMM1,1502756,false,false,1615,image-keyboard-response,23
true,13,0,1,0,true,q,false,true,0.0-2.0-0.56-0.510-3.510,0,0,0,81,false,stim,false,2,766,2,0,0,78689,WMM1,1505064,false,false,1618,image-keyboard-response,24
true,13,0,1,0,true,q,false,true,0.0-2.0-0.56-0.511-3.511,0,0,0,81,false,stim,false,2,400,2,0,0,78689,WMM1,1507016,false,false,1621,image-keyboard-response,25
true,13,2,1,2,true,d,false,true,0.0-2.0-0.56-0.512-3.512,0,0,0,68,false,stim,false,1,1837,2,0,1,78689,WMM1,1510396,false,false,1624,image-keyboard-response,26
true,13,2,1,2,true,d,false,true,0.0-2.0-0.57-0.513-3.513,0,0,0,68,false,stim,false,1,927,2,1,2,78689,WMM1,1512866,false,false,1627,image-keyboard-response,27
true,13,0,1,0,true,q,false,true,0.0-2.0-0.57-0.514-3.514,0,0,0,81,false,stim,false,2,514,2,1,0,78689,WMM1,1514913,false,false,1630,image-keyboard-response,28
true,13,0,1,0,true,q,false,true,0.0-2.0-0.57-0.515-3.515,0,0,0,81,false,stim,false,2,410,2,1,0,78689,WMM1,1516868,false,false,1633,image-keyboard-response,29
true,13,2,1,2,true,d,false,true,0.0-2.0-0.57-0.516-3.516,0,0,0,68,false,stim,false,1,681,2,1,1,78689,WMM1,1519079,false,false,1636,image-keyboard-response,30
true,13,2,1,2,true,d,false,true,0.0-2.0-0.57-0.517-3.517,0,0,0,68,false,stim,false,1,438,2,1,1,78689,WMM1,1521048,false,false,1639,image-keyboard-response,31
true,13,0,1,2,false,d,true,false,0.0-2.0-0.57-0.518-3.518,0,0,0,81,false,stim,false,1,682,2,1,2,78689,WMM1,1523272,false,false,1642,image-keyboard-response,32
true,13,2,1,2,true,d,false,true,0.0-2.0-0.57-0.519-3.519,0,0,0,68,false,stim,false,1,639,2,1,1,78689,WMM1,1525440,false,false,1645,image-keyboard-response,33
true,13,2,1,0,false,q,false,false,0.0-2.0-0.57-0.520-3.520,0,0,0,68,false,stim,true,2,769,2,1,0,78689,WMM1,1527750,false,false,1648,image-keyboard-response,34
true,13,1,1,2,false,d,false,true,0.0-2.0-0.57-0.521-3.521,0,0,0,90,false,stim,true,1,693,2,1,2,78689,WMM1,1529984,false,true,1651,image-keyboard-response,35
true,13,2,1,2,true,d,false,false,0.0-2.0-0.58-0.522-3.522,0,0,0,68,false,stim,false,1,859,2,1,1,78689,WMM1,1532371,false,true,1654,image-keyboard-response,36
true,14,0,0,2,false,d,true,false,0.0-2.0-0.58-0.523-3.523,1,1,1,81,true,stim,false,2,871,2,1,2,78689,WMM1,1657067,false,false,1777,image-keyboard-response,1
true,14,1,0,0,false,q,true,false,0.0-2.0-0.58-0.524-3.524,1,1,1,90,false,stim,false,0,1026,2,1,0,78689,WMM1,1659622,false,false,1780,image-keyboard-response,2
true,14,2,0,2,true,d,false,true,0.0-2.0-0.58-0.525-3.525,1,1,1,68,false,stim,false,2,1420,2,1,1,78689,WMM1,1662579,false,false,1783,image-keyboard-response,3
true,14,1,0,0,false,q,true,false,0.0-2.0-0.58-0.526-3.526,1,1,1,90,false,stim,false,0,436,2,1,0,78689,WMM1,1664544,false,false,1786,image-keyboard-response,4
true,14,0,0,2,false,d,true,true,0.0-2.0-0.58-0.527-3.527,1,1,1,81,false,stim,false,2,669,2,1,2,78689,WMM1,1666759,false,true,1789,image-keyboard-response,5
true,14,2,0,0,false,q,true,false,0.0-2.0-0.58-0.528-3.528,1,1,1,68,false,stim,false,0,1141,2,1,0,78689,WMM1,1669420,false,false,1792,image-keyboard-response,6
true,14,0,0,2,false,d,true,false,0.0-2.0-0.58-0.529-3.529,1,1,1,81,false,stim,false,2,919,2,1,2,78689,WMM1,1671880,false,false,1795,image-keyboard-response,7
true,14,1,0,2,false,d,true,false,0.0-2.0-0.58-0.530-3.530,1,1,1,90,false,stim,false,2,700,2,1,1,78689,WMM1,1674111,false,false,1798,image-keyboard-response,8
true,14,2,0,2,true,d,false,true,0.0-2.0-0.59-0.531-3.531,1,1,1,68,false,stim,false,2,1287,2,1,2,78689,WMM1,1676973,false,false,1801,image-keyboard-response,9
true,14,2,0,2,true,d,false,true,0.0-2.0-0.59-0.532-3.532,1,1,1,68,false,stim,false,2,518,2,1,2,78689,WMM1,1679030,false,false,1804,image-keyboard-response,10
true,14,2,0,2,true,d,false,true,0.0-2.0-0.59-0.533-3.533,1,1,1,68,false,stim,false,2,966,2,1,1,78689,WMM1,1681538,false,false,1807,image-keyboard-response,11
true,14,1,0,0,false,q,true,true,0.0-2.0-0.59-0.534-3.534,1,1,1,90,false,stim,false,0,1197,2,1,0,78689,WMM1,1684280,false,true,1810,image-keyboard-response,12
true,14,2,0,2,true,d,false,true,0.0-2.0-0.59-0.535-3.535,1,1,1,68,false,stim,false,2,867,2,1,2,78689,WMM1,1686681,false,false,1813,image-keyboard-response,13
true,14,0,0,0,true,q,false,true,0.0-2.0-0.59-0.536-3.536,1,1,1,81,false,stim,false,0,898,2,1,0,78689,WMM1,1689113,false,false,1816,image-keyboard-response,14
true,14,1,0,2,false,d,true,true,0.0-2.0-0.59-0.537-3.537,1,1,1,90,false,stim,false,2,1256,2,1,1,78689,WMM1,1691911,false,true,1819,image-keyboard-response,15
true,14,0,0,0,true,q,false,true,0.0-2.0-0.59-0.538-3.538,1,1,1,81,false,stim,false,0,1117,2,1,0,78689,WMM1,1694563,false,false,1822,image-keyboard-response,16
true,14,1,0,2,false,d,true,false,0.0-2.0-0.59-0.539-3.539,1,1,1,90,false,stim,false,2,1061,2,1,1,78689,WMM1,1697166,false,false,1825,image-keyboard-response,17
true,14,2,0,2,true,d,false,true,0.0-2.0-0.60-0.540-3.540,1,1,1,68,false,stim,false,2,966,2,1,2,78689,WMM1,1699672,false,false,1828,image-keyboard-response,18
true,14,2,0,2,true,d,false,true,0.0-2.0-0.60-0.541-3.541,1,1,1,68,false,stim,false,2,1467,2,1,2,78689,WMM1,1702683,false,false,1831,image-keyboard-response,19
true,14,0,0,0,true,q,false,true,0.0-2.0-0.60-0.542-3.542,1,1,1,81,false,stim,false,0,1127,2,1,0,78689,WMM1,1705345,false,false,1834,image-keyboard-response,20
true,14,1,0,2,false,d,true,false,0.0-2.0-0.60-0.543-3.543,1,1,1,90,false,stim,false,2,834,2,1,1,78689,WMM1,1707731,false,false,1837,image-keyboard-response,21
true,14,0,0,2,false,d,true,false,0.0-2.0-0.60-0.544-3.544,1,1,1,81,false,stim,false,2,595,2,1,1,78689,WMM1,1709873,false,false,1840,image-keyboard-response,22
true,14,0,0,0,true,q,false,false,0.0-2.0-0.60-0.545-3.545,1,1,1,81,false,stim,false,0,664,2,1,0,78689,WMM1,1712083,false,true,1843,image-keyboard-response,23
true,14,1,0,2,false,d,true,false,0.0-2.0-0.60-0.546-3.546,1,1,1,90,false,stim,false,2,1337,2,1,1,78689,WMM1,1714975,false,false,1846,image-keyboard-response,24
true,14,0,0,0,true,q,false,true,0.0-2.0-0.60-0.547-3.547,1,1,1,81,false,stim,false,0,1224,2,1,0,78689,WMM1,1717744,false,false,1849,image-keyboard-response,25
true,14,2,0,2,true,d,false,true,0.0-2.0-0.60-0.548-3.548,1,1,1,68,false,stim,false,2,848,2,1,2,78689,WMM1,1720138,false,false,1852,image-keyboard-response,26
true,14,2,0,2,true,d,false,true,0.0-2.0-0.61-0.549-3.549,1,1,1,68,false,stim,false,2,711,2,1,2,78689,WMM1,1722402,false,false,1855,image-keyboard-response,27
true,14,1,0,2,false,d,true,false,0.0-2.0-0.61-0.550-3.550,1,1,1,90,false,stim,false,2,1487,2,1,1,78689,WMM1,1725438,false,false,1858,image-keyboard-response,28
true,14,0,0,0,true,q,false,true,0.0-2.0-0.61-0.551-3.551,1,1,1,81,false,stim,false,0,785,2,1,0,78689,WMM1,1727767,false,false,1861,image-keyboard-response,29
true,14,1,0,2,false,d,true,false,0.0-2.0-0.61-0.552-3.552,1,1,1,90,false,stim,false,2,1835,2,1,1,78689,WMM1,1731158,false,false,1864,image-keyboard-response,30
true,14,0,0,0,true,q,false,true,0.0-2.0-0.61-0.553-3.553,1,1,1,81,false,stim,false,0,944,2,1,0,78689,WMM1,1733657,false,false,1867,image-keyboard-response,31
true,14,2,0,2,true,d,false,true,0.0-2.0-0.61-0.554-3.554,1,1,1,68,false,stim,false,2,1571,2,1,2,78689,WMM1,1736784,false,false,1870,image-keyboard-response,32
true,14,2,0,2,true,d,false,true,0.0-2.0-0.61-0.555-3.555,1,1,1,68,false,stim,false,2,2412,2,1,2,78689,WMM1,1740747,false,false,1873,image-keyboard-response,33
true,14,0,0,0,true,q,false,true,0.0-2.0-0.61-0.556-3.556,1,1,1,81,false,stim,false,0,656,2,1,0,78689,WMM1,1742961,false,false,1876,image-keyboard-response,34
true,14,1,0,2,false,d,true,false,0.0-2.0-0.61-0.557-3.557,1,1,1,90,false,stim,false,2,563,2,1,1,78689,WMM1,1745077,false,false,1879,image-keyboard-response,35
true,14,0,0,2,false,d,true,false,0.0-2.0-0.62-0.558-3.558,1,1,1,81,false,stim,false,2,480,2,1,2,78689,WMM1,1747116,false,false,1882,image-keyboard-response,36
true,14,0,0,2,false,d,true,false,0.0-2.0-0.62-0.559-3.559,1,1,1,81,false,stim,false,2,1338,2,1,1,78689,WMM1,1750003,false,false,1885,image-keyboard-response,37
true,14,0,0,0,true,q,false,true,0.0-2.0-0.62-0.560-3.560,1,1,1,81,false,stim,false,0,1754,2,1,0,78689,WMM1,1753299,false,false,1888,image-keyboard-response,38
true,14,0,0,0,true,q,false,true,0.0-2.0-0.62-0.561-3.561,1,1,1,81,false,stim,false,0,660,2,1,0,78689,WMM1,1755507,false,false,1891,image-keyboard-response,39
true,14,2,0,2,true,d,false,true,0.0-2.0-0.62-0.562-3.562,1,1,1,68,false,stim,false,2,1486,2,1,2,78689,WMM1,1758543,false,false,1894,image-keyboard-response,40
true,14,0,0,0,true,q,false,true,0.0-2.0-0.62-0.563-3.563,1,1,1,81,false,stim,false,0,844,2,1,0,78689,WMM1,1760941,false,false,1897,image-keyboard-response,41
true,14,2,0,2,true,d,false,true,0.0-2.0-0.62-0.564-3.564,1,1,1,68,false,stim,false,2,828,2,1,1,78689,WMM1,1763317,false,false,1900,image-keyboard-response,42
true,14,2,0,2,true,d,false,true,0.0-2.0-0.62-0.565-3.565,1,1,1,68,false,stim,false,2,1279,2,1,2,78689,WMM1,1766208,false,false,1903,image-keyboard-response,43
true,14,2,0,2,true,d,false,true,0.0-2.0-0.62-0.566-3.566,1,1,1,68,false,stim,false,2,325,2,1,1,78689,WMM1,1768073,false,false,1906,image-keyboard-response,44
true,14,2,0,2,true,d,false,true,0.0-2.0-0.63-0.567-3.567,1,1,1,68,false,stim,false,2,976,2,1,2,78689,WMM1,1770604,false,false,1909,image-keyboard-response,45
true,14,0,0,0,true,q,false,true,0.0-2.0-0.63-0.568-3.568,1,1,1,81,false,stim,false,0,612,2,0,0,78689,WMM1,1772761,false,false,1912,image-keyboard-response,46
true,14,0,0,0,true,q,false,true,0.0-2.0-0.63-0.569-3.569,1,1,1,81,false,stim,false,0,673,2,0,0,78689,WMM1,1774971,false,false,1915,image-keyboard-response,47
true,14,2,0,2,true,d,false,true,0.0-2.0-0.63-0.570-3.570,1,1,1,68,false,stim,false,2,614,2,1,2,78689,WMM1,1777114,false,false,1918,image-keyboard-response,48
true,14,2,0,2,true,d,false,true,0.0-2.0-0.63-0.571-3.571,1,1,1,68,false,stim,false,2,1004,2,0,1,78689,WMM1,1779655,false,false,1921,image-keyboard-response,49
true,14,2,0,2,true,d,false,true,0.0-2.0-0.63-0.572-3.572,1,1,1,68,false,stim,false,2,2846,2,0,1,78689,WMM1,1784037,false,false,1924,image-keyboard-response,50
true,14,2,0,2,true,d,false,true,0.0-2.0-0.63-0.573-3.573,1,1,1,68,false,stim,false,2,919,2,1,2,78689,WMM1,1786491,false,false,1927,image-keyboard-response,51
true,14,2,0,0,false,q,true,false,0.0-2.0-0.63-0.574-3.574,1,1,1,68,false,stim,false,0,711,2,0,0,78689,WMM1,1788743,false,false,1930,image-keyboard-response,52
true,14,2,0,2,true,d,false,true,0.0-2.0-0.63-0.575-3.575,1,1,1,68,false,stim,false,2,806,2,0,1,78689,WMM1,1791078,false,false,1933,image-keyboard-response,53
true,14,2,0,2,true,d,false,true,0.0-2.0-0.64-0.576-3.576,1,1,1,68,false,stim,false,2,2524,2,1,2,78689,WMM1,1795137,false,false,1936,image-keyboard-response,54
true,15,2,3,2,true,d,false,true,0.0-2.0-0.64-0.577-3.577,0,0,1,68,true,stim,false,2,1914,2,1,2,78689,WMM1,1798588,false,false,1939,image-keyboard-response,1
false,15,-1,3,1,false,z,true,false,0.0-2.0-0.64-0.578-3.578,0,0,1,,false,stim,false,2,,2,0,1,78689,WMM1,1803150,false,false,1942,image-keyboard-response,2
true,15,0,3,1,false,z,false,true,0.0-2.0-0.64-0.579-3.579,0,0,1,81,false,stim,true,0,845,2,0,0,78689,WMM1,1805539,false,true,1945,image-keyboard-response,3
true,15,0,3,1,false,z,false,false,0.0-2.0-0.64-0.580-3.580,0,0,1,81,false,stim,true,0,485,2,0,0,78689,WMM1,1807558,false,false,1948,image-keyboard-response,4
true,15,2,3,1,false,z,false,false,0.0-2.0-0.64-0.581-3.581,0,0,1,68,false,stim,true,2,866,2,0,1,78689,WMM1,1809960,false,false,1951,image-keyboard-response,5
true,15,0,3,1,false,z,false,false,0.0-2.0-0.64-0.582-3.582,0,0,1,81,false,stim,true,0,513,2,0,0,78689,WMM1,1812007,false,false,1954,image-keyboard-response,6
false,15,-1,3,2,false,d,true,false,0.0-2.0-0.64-0.583-3.583,0,0,1,,false,stim,false,2,,2,1,2,78689,WMM1,1816552,false,false,1957,image-keyboard-response,7
true,15,1,3,1,true,z,false,true,0.0-2.0-0.64-0.584-3.584,0,0,1,90,false,stim,false,2,415,2,0,1,78689,WMM1,1818501,false,false,1960,image-keyboard-response,8
true,15,1,3,1,true,z,false,true,0.0-2.0-0.65-0.585-3.585,0,0,1,90,false,stim,false,2,441,2,0,1,78689,WMM1,1820487,false,false,1963,image-keyboard-response,9
true,15,0,3,1,false,z,false,true,0.0-2.0-0.65-0.586-3.586,0,0,1,81,false,stim,true,0,539,2,0,0,78689,WMM1,1822555,false,true,1966,image-keyboard-response,10
true,15,1,3,1,true,z,false,true,0.0-2.0-0.65-0.587-3.587,0,0,1,90,false,stim,false,2,628,2,0,1,78689,WMM1,1824725,false,false,1969,image-keyboard-response,11
true,15,1,3,1,true,z,false,true,0.0-2.0-0.65-0.588-3.588,0,0,1,90,false,stim,false,2,1287,2,0,1,78689,WMM1,1827532,false,false,1972,image-keyboard-response,12
true,15,0,3,1,false,z,false,false,0.0-2.0-0.65-0.589-3.589,0,0,1,81,false,stim,true,0,595,2,0,0,78689,WMM1,1829662,false,false,1975,image-keyboard-response,13
true,15,2,3,1,false,z,true,false,0.0-2.0-0.65-0.590-3.590,0,0,1,68,false,stim,false,0,894,2,0,0,78689,WMM1,1832102,false,false,1978,image-keyboard-response,14
true,15,1,3,2,false,d,true,true,0.0-2.0-0.65-0.591-3.591,0,0,1,90,false,stim,false,2,564,2,1,2,78689,WMM1,1834212,false,true,1981,image-keyboard-response,15
true,15,1,3,2,false,d,true,false,0.0-2.0-0.65-0.592-3.592,0,0,1,90,false,stim,false,2,438,2,1,2,78689,WMM1,1836186,false,false,1984,image-keyboard-response,16
true,15,0,3,2,false,d,true,false,0.0-2.0-0.65-0.593-3.593,0,0,1,81,false,stim,false,2,1446,2,1,2,78689,WMM1,1839165,false,false,1987,image-keyboard-response,17
true,15,2,3,1,false,z,false,false,0.0-2.0-0.66-0.594-3.594,0,0,1,68,false,stim,true,2,1095,2,0,1,78689,WMM1,1841790,false,false,1990,image-keyboard-response,18
true,15,1,3,1,true,z,false,true,0.0-2.0-0.66-0.595-3.595,0,0,1,90,false,stim,false,0,439,2,0,0,78689,WMM1,1843760,false,false,1993,image-keyboard-response,19
true,15,0,3,2,false,d,true,false,0.0-2.0-0.66-0.596-3.596,0,0,1,81,false,stim,false,2,497,2,1,2,78689,WMM1,1845798,false,false,1996,image-keyboard-response,20
true,15,1,3,2,false,d,true,false,0.0-2.0-0.66-0.597-3.597,0,0,1,90,false,stim,false,2,584,2,1,2,78689,WMM1,1847925,false,false,1999,image-keyboard-response,21
true,15,2,3,1,false,z,false,false,0.0-2.0-0.66-0.598-3.598,0,0,1,68,false,stim,true,2,668,2,0,1,78689,WMM1,1850188,false,false,2002,image-keyboard-response,22
true,15,1,3,1,true,z,false,true,0.0-2.0-0.66-0.599-3.599,0,0,1,90,false,stim,false,2,711,2,0,1,78689,WMM1,1852452,false,false,2005,image-keyboard-response,23
true,15,0,3,1,false,z,false,false,0.0-2.0-0.66-0.600-3.600,0,0,1,81,false,stim,true,0,1098,2,0,0,78689,WMM1,1855100,false,false,2008,image-keyboard-response,24
true,15,2,3,1,false,z,true,false,0.0-2.0-0.66-0.601-3.601,0,0,1,68,false,stim,false,0,908,2,0,0,78689,WMM1,1857550,false,false,2011,image-keyboard-response,25
true,15,1,3,2,false,d,true,false,0.0-2.0-0.66-0.602-3.602,0,0,1,90,false,stim,false,2,491,2,1,2,78689,WMM1,1859592,false,false,2014,image-keyboard-response,26
true,15,0,3,1,false,z,true,false,0.0-2.0-0.67-0.603-3.603,0,0,1,81,false,stim,false,2,720,2,0,1,78689,WMM1,1861862,false,false,2017,image-keyboard-response,27
true,15,0,3,2,false,d,true,false,0.0-2.0-0.67-0.604-3.604,0,0,1,81,false,stim,false,2,890,2,1,2,78689,WMM1,1864293,false,false,2020,image-keyboard-response,28
true,15,1,3,1,true,z,false,true,0.0-2.0-0.67-0.605-3.605,0,0,1,90,false,stim,false,2,799,2,0,1,78689,WMM1,1866643,false,false,2023,image-keyboard-response,29
true,15,2,3,1,false,z,true,false,0.0-2.0-0.67-0.606-3.606,0,0,1,68,false,stim,false,0,1062,2,0,0,78689,WMM1,1869246,false,false,2026,image-keyboard-response,30
true,15,1,3,1,true,z,false,true,0.0-2.0-0.67-0.607-3.607,0,0,1,90,false,stim,false,0,1658,2,0,0,78689,WMM1,1872462,false,false,2029,image-keyboard-response,31
true,15,1,3,2,false,d,true,false,0.0-2.0-0.67-0.608-3.608,0,0,1,90,false,stim,false,2,982,2,1,2,78689,WMM1,1874986,false,false,2032,image-keyboard-response,32
true,15,2,3,1,false,z,true,false,0.0-2.0-0.67-0.609-3.609,0,0,1,68,false,stim,false,0,787,2,0,0,78689,WMM1,1877331,false,false,2035,image-keyboard-response,33
true,15,0,3,1,false,z,true,false,0.0-2.0-0.67-0.610-3.610,0,0,1,81,false,stim,false,2,1333,2,0,1,78689,WMM1,1880217,false,false,2038,image-keyboard-response,34
true,15,1,3,2,false,d,true,true,0.0-2.0-0.67-0.611-3.611,0,0,1,90,false,stim,false,2,567,2,1,2,78689,WMM1,1882344,false,true,2041,image-keyboard-response,35
true,15,2,3,1,false,z,false,false,0.0-2.0-0.68-0.612-3.612,0,0,1,68,false,stim,true,2,1341,2,0,1,78689,WMM1,1885237,false,false,2044,image-keyboard-response,36
true,15,0,3,1,false,z,false,true,0.0-2.0-0.68-0.613-3.613,0,0,1,81,false,stim,true,0,1102,2,0,0,78689,WMM1,1887890,false,true,2047,image-keyboard-response,37
true,15,1,3,1,true,z,false,false,0.0-2.0-0.68-0.614-3.614,0,0,1,90,false,stim,false,2,840,2,0,1,78689,WMM1,1890287,false,true,2050,image-keyboard-response,38
true,15,2,3,1,false,z,true,false,0.0-2.0-0.68-0.615-3.615,0,0,1,68,false,stim,false,0,1010,2,0,0,78689,WMM1,1892857,false,false,2053,image-keyboard-response,39
true,15,0,3,2,false,d,true,false,0.0-2.0-0.68-0.616-3.616,0,0,1,81,false,stim,false,2,854,2,1,2,78689,WMM1,1895271,false,false,2056,image-keyboard-response,40
true,15,1,3,2,false,d,true,false,0.0-2.0-0.68-0.617-3.617,0,0,1,90,false,stim,false,2,484,2,1,2,78689,WMM1,1897311,false,false,2059,image-keyboard-response,41
true,15,2,3,1,false,z,false,false,0.0-2.0-0.68-0.618-3.618,0,0,1,68,false,stim,true,2,1304,2,0,1,78689,WMM1,1900172,false,false,2062,image-keyboard-response,42
true,15,1,3,1,true,z,false,true,0.0-2.0-0.68-0.619-3.619,0,0,1,90,false,stim,false,0,424,2,0,0,78689,WMM1,1902153,false,false,2065,image-keyboard-response,43
true,15,0,3,2,false,d,true,true,0.0-2.0-0.68-0.620-3.620,0,0,1,81,false,stim,false,2,836,2,1,2,78689,WMM1,1904534,false,true,2068,image-keyboard-response,44
true,15,2,3,1,false,z,true,false,0.0-2.0-0.69-0.621-3.621,0,0,1,68,false,stim,false,0,1376,2,0,0,78689,WMM1,1907465,false,false,2071,image-keyboard-response,45
true,15,1,3,1,true,z,false,true,0.0-2.0-0.69-0.622-3.622,0,0,1,90,false,stim,false,0,674,2,0,0,78689,WMM1,1909683,false,false,2074,image-keyboard-response,46
true,15,0,3,1,false,z,true,false,0.0-2.0-0.69-0.623-3.623,0,0,1,81,false,stim,false,2,503,2,0,1,78689,WMM1,1911723,false,false,2077,image-keyboard-response,47
true,15,2,3,2,true,d,false,false,0.0-2.0-0.69-0.624-3.624,0,0,1,68,false,stim,false,2,559,2,1,2,78689,WMM1,1913839,false,true,2080,image-keyboard-response,48
true,15,1,3,1,true,z,false,true,0.0-2.0-0.69-0.625-3.625,0,0,1,90,false,stim,false,2,747,2,0,1,78689,WMM1,1916126,false,false,2083,image-keyboard-response,49
true,15,2,3,2,true,d,false,true,0.0-2.0-0.69-0.626-3.626,0,0,1,68,false,stim,false,2,794,2,1,2,78689,WMM1,1918474,false,false,2086,image-keyboard-response,50
true,15,2,3,2,true,d,false,false,0.0-2.0-0.69-0.627-3.627,0,0,1,68,false,stim,false,2,490,2,0,2,78689,WMM1,1920501,false,true,2089,image-keyboard-response,51
true,15,1,3,1,true,z,false,true,0.0-2.0-0.69-0.628-3.628,0,0,1,90,false,stim,false,0,608,2,0,0,78689,WMM1,1922639,false,false,2092,image-keyboard-response,52
true,15,0,3,1,false,z,true,false,0.0-2.0-0.69-0.629-3.629,0,0,1,81,false,stim,false,2,454,2,0,1,78689,WMM1,1924624,false,false,2095,image-keyboard-response,53
true,15,2,3,1,false,z,false,false,0.0-2.0-0.70-0.630-3.630,0,0,1,68,false,stim,true,2,942,2,0,1,78689,WMM1,1927094,false,false,2098,image-keyboard-response,54
true,15,2,3,1,false,z,true,false,0.0-2.0-0.70-0.631-3.631,0,0,1,68,false,stim,false,0,461,2,0,0,78689,WMM1,1929120,false,false,2101,image-keyboard-response,55
true,15,1,3,1,true,z,false,true,0.0-2.0-0.70-0.632-3.632,0,0,1,90,false,stim,false,2,378,2,0,1,78689,WMM1,1931041,false,false,2104,image-keyboard-response,56
true,15,1,3,1,true,z,false,true,0.0-2.0-0.70-0.633-3.633,0,0,1,90,false,stim,false,2,613,2,0,1,78689,WMM1,1933195,false,false,2107,image-keyboard-response,57
true,15,2,3,1,false,z,true,false,0.0-2.0-0.70-0.634-3.634,0,0,1,68,false,stim,false,0,754,2,0,0,78689,WMM1,1935467,false,false,2110,image-keyboard-response,58
true,15,2,3,2,true,d,false,true,0.0-2.0-0.70-0.635-3.635,0,0,1,68,false,stim,false,2,688,2,0,2,78689,WMM1,1937701,false,false,2113,image-keyboard-response,59
true,15,0,3,1,false,z,false,true,0.0-2.0-0.70-0.636-3.636,0,0,1,81,false,stim,true,0,1273,2,0,0,78689,WMM1,1940516,false,true,2116,image-keyboard-response,60
