answered,blockNum,choice,condition,corResp,correct,correct_response,explo,fb,internal_node_id,isStable_1,isStable_2,isStable_3,key_press,newBlock,part,persev,persevResp,rt,sessNum,stableAS,stimulus,subject,task,time_elapsed,training,trap,trial_index,trial_type,trialsInBlock
true,1,1,0,1,true,z,false,true,0.0-2.0-0.0-0.0-3.0,0,0,0,90,true,stim,false,-1,793,1,0,0,78689,WMM2,155661,false,false,136,image-keyboard-response,1
true,1,1,0,0,false,q,true,false,0.0-2.0-0.0-0.1-3.1,0,0,0,90,false,stim,false,-1,914,1,0,1,78689,WMM2,158092,false,false,139,image-keyboard-response,2
true,1,1,0,0,false,q,true,false,0.0-2.0-0.0-0.2-3.2,0,0,0,90,false,stim,false,-1,488,1,0,1,78689,WMM2,160101,false,false,142,image-keyboard-response,3
true,1,0,0,1,false,z,true,false,0.0-2.0-0.0-0.3-3.3,0,0,0,81,false,stim,false,-1,973,1,0,0,78689,WMM2,162602,false,false,145,image-keyboard-response,4
true,1,1,0,1,true,z,false,true,0.0-2.0-0.0-0.4-3.4,0,0,0,90,false,stim,false,-1,664,1,0,2,78689,WMM2,164787,false,false,148,image-keyboard-response,5
true,1,1,0,1,true,z,false,true,0.0-2.0-0.0-0.5-3.5,0,0,0,90,false,stim,false,-1,839,1,0,2,78689,WMM2,167148,false,false,151,image-keyboard-response,6
true,1,2,0,1,false,z,true,false,0.0-2.0-0.0-0.6-3.6,0,0,0,68,false,stim,false,-1,948,1,0,0,78689,WMM2,169606,false,false,154,image-keyboard-response,7
true,1,0,0,0,true,q,false,true,0.0-2.0-0.0-0.7-3.7,0,0,0,81,false,stim,false,-1,505,1,0,1,78689,WMM2,171626,false,false,157,image-keyboard-response,8
true,1,1,0,1,true,z,false,true,0.0-2.0-0.0-0.8-3.8,0,0,0,90,false,stim,false,-1,1018,1,0,2,78689,WMM2,174157,false,false,160,image-keyboard-response,9
true,1,1,0,1,true,z,false,true,0.0-2.0-0.1-0.9-3.9,0,0,0,90,false,stim,false,-1,539,1,0,2,78689,WMM2,176220,false,false,163,image-keyboard-response,10
true,1,0,0,0,true,q,false,true,0.0-2.0-0.1-0.10-3.10,0,0,0,81,false,stim,false,-1,761,1,0,1,78689,WMM2,178496,false,false,166,image-keyboard-response,11
true,1,2,0,1,false,z,true,false,0.0-2.0-0.1-0.11-3.11,0,0,0,68,false,stim,false,-1,573,1,0,0,78689,WMM2,180591,false,false,169,image-keyboard-response,12
true,1,1,0,1,true,z,false,true,0.0-2.0-0.1-0.12-3.12,0,0,0,90,false,stim,false,-1,1176,1,0,2,78689,WMM2,183289,false,false,172,image-keyboard-response,13
true,1,0,0,0,true,q,false,true,0.0-2.0-0.1-0.13-3.13,0,0,0,81,false,stim,false,-1,542,1,0,1,78689,WMM2,185361,false,false,175,image-keyboard-response,14
true,1,1,0,1,true,z,false,true,0.0-2.0-0.1-0.14-3.14,0,0,0,90,false,stim,false,-1,2002,1,0,0,78689,WMM2,188881,false,false,178,image-keyboard-response,15
true,1,1,0,1,true,z,false,true,0.0-2.0-0.1-0.15-3.15,0,0,0,90,false,stim,false,-1,457,1,0,2,78689,WMM2,190851,false,false,181,image-keyboard-response,16
true,1,0,0,1,false,z,true,false,0.0-2.0-0.1-0.16-3.16,0,0,0,81,false,stim,false,-1,1050,1,0,0,78689,WMM2,193423,false,false,184,image-keyboard-response,17
true,1,1,0,0,false,q,true,false,0.0-2.0-0.1-0.17-3.17,0,0,0,90,false,stim,false,-1,793,1,0,1,78689,WMM2,195731,false,false,187,image-keyboard-response,18
true,1,0,0,1,false,z,true,false,0.0-2.0-0.2-0.18-3.18,0,0,0,81,false,stim,false,-1,724,1,0,2,78689,WMM2,197971,false,false,190,image-keyboard-response,19
true,1,1,0,1,true,z,false,false,0.0-2.0-0.2-0.19-3.19,0,0,0,90,false,stim,false,-1,939,1,0,0,78689,WMM2,200442,false,true,193,image-keyboard-response,20
true,1,1,0,0,false,q,true,false,0.0-2.0-0.2-0.20-3.20,0,0,0,90,false,stim,false,-1,531,1,0,1,78689,WMM2,202482,false,false,196,image-keyboard-response,21
true,1,1,0,1,true,z,false,true,0.0-2.0-0.2-0.21-3.21,0,0,0,90,false,stim,false,-1,474,1,0,2,78689,WMM2,204478,false,false,199,image-keyboard-response,22
true,1,1,0,1,true,z,false,true,0.0-2.0-0.2-0.22-3.22,0,0,0,90,false,stim,false,-1,657,1,0,0,78689,WMM2,206654,false,false,202,image-keyboard-response,23
true,1,2,0,1,false,z,true,false,0.0-2.0-0.2-0.23-3.23,0,0,0,68,false,stim,false,-1,975,1,0,2,78689,WMM2,209158,false,false,205,image-keyboard-response,24
true,1,1,0,1,true,z,false,true,0.0-2.0-0.2-0.24-3.24,0,0,0,90,false,stim,false,-1,787,1,0,0,78689,WMM2,211461,false,false,208,image-keyboard-response,25
true,1,0,0,0,true,q,false,true,0.0-2.0-0.2-0.25-3.25,0,0,0,81,false,stim,false,-1,851,1,0,1,78689,WMM2,213829,false,false,211,image-keyboard-response,26
true,1,0,0,0,true,q,false,true,0.0-2.0-0.2-0.26-3.26,0,0,0,81,false,stim,false,-1,1132,1,0,1,78689,WMM2,216492,false,false,214,image-keyboard-response,27
true,1,1,0,1,true,z,false,true,0.0-2.0-0.3-0.27-3.27,0,0,0,90,false,stim,false,-1,751,1,0,2,78689,WMM2,218768,false,false,217,image-keyboard-response,28
true,1,2,0,1,false,z,true,false,0.0-2.0-0.3-0.28-3.28,0,0,0,68,false,stim,false,-1,701,1,0,0,78689,WMM2,220996,false,false,220,image-keyboard-response,29
true,1,1,0,1,true,z,false,true,0.0-2.0-0.3-0.29-3.29,0,0,0,90,false,stim,false,-1,580,1,0,2,78689,WMM2,223100,false,false,223,image-keyboard-response,30
true,1,1,0,0,false,q,true,false,0.0-2.0-0.3-0.30-3.30,0,0,0,90,false,stim,false,-1,740,1,0,1,78689,WMM2,225362,false,false,226,image-keyboard-response,31
true,1,1,0,1,true,z,false,true,0.0-2.0-0.3-0.31-3.31,0,0,0,90,false,stim,false,-1,1090,1,0,0,78689,WMM2,227977,false,false,229,image-keyboard-response,32
true,1,1,0,1,true,z,false,false,0.0-2.0-0.3-0.32-3.32,0,0,0,90,false,stim,false,-1,974,1,0,2,78689,WMM2,230481,false,true,232,image-keyboard-response,33
true,1,0,0,0,true,q,false,true,0.0-2.0-0.3-0.33-3.33,0,0,0,81,false,stim,false,-1,1305,1,0,1,78689,WMM2,233314,false,false,235,image-keyboard-response,34
true,1,1,0,1,true,z,false,true,0.0-2.0-0.3-0.34-3.34,0,0,0,90,false,stim,false,-1,670,1,0,0,78689,WMM2,235508,false,false,238,image-keyboard-response,35
true,1,0,0,0,true,q,false,true,0.0-2.0-0.3-0.35-3.35,0,0,0,81,false,stim,false,-1,865,1,0,1,78689,WMM2,237908,false,false,241,image-keyboard-response,36
true,1,0,0,0,true,q,false,false,0.0-2.0-0.4-0.36-3.36,0,0,0,81,false,stim,false,-1,499,1,0,1,78689,WMM2,239942,false,true,244,image-keyboard-response,37
true,1,1,0,1,true,z,false,false,0.0-2.0-0.4-0.37-3.37,0,0,0,90,false,stim,false,-1,930,1,1,0,78689,WMM2,242397,false,true,247,image-keyboard-response,38
true,1,0,0,0,true,q,false,true,0.0-2.0-0.4-0.38-3.38,0,0,0,81,false,stim,false,-1,479,1,0,1,78689,WMM2,244398,false,false,250,image-keyboard-response,39
true,1,1,0,1,true,z,false,true,0.0-2.0-0.4-0.39-3.39,0,0,0,90,false,stim,false,-1,681,1,1,0,78689,WMM2,246603,false,false,253,image-keyboard-response,40
true,1,1,0,1,true,z,false,true,0.0-2.0-0.4-0.40-3.40,0,0,0,90,false,stim,false,-1,1028,1,0,2,78689,WMM2,249151,false,false,256,image-keyboard-response,41
true,1,1,0,0,false,q,true,false,0.0-2.0-0.4-0.41-3.41,0,0,0,90,false,stim,false,-1,1499,1,0,1,78689,WMM2,252172,false,false,259,image-keyboard-response,42
true,1,1,0,1,true,z,false,true,0.0-2.0-0.4-0.42-3.42,0,0,0,90,false,stim,false,-1,649,1,1,0,78689,WMM2,254341,false,false,262,image-keyboard-response,43
true,1,1,0,1,true,z,false,true,0.0-2.0-0.4-0.43-3.43,0,0,0,90,false,stim,false,-1,690,1,0,2,78689,WMM2,256553,false,false,265,image-keyboard-response,44
true,1,1,0,1,true,z,false,true,0.0-2.0-0.4-0.44-3.44,0,0,0,90,false,stim,false,-1,667,1,0,2,78689,WMM2,258738,false,false,268,image-keyboard-response,45
true,1,1,0,1,true,z,false,true,0.0-2.0-0.5-0.45-3.45,0,0,0,90,false,stim,false,-1,2314,1,1,0,78689,WMM2,262571,false,false,271,image-keyboard-response,46
true,2,1,1,1,true,z,false,true,0.0-2.0-0.5-0.46-3.46,1,0,0,90,true,stim,false,1,1085,1,1,0,78689,WMM2,265183,false,false,274,image-keyboard-response,1
true,2,1,1,0,false,q,false,false,0.0-2.0-0.5-0.47-3.47,1,0,0,90,false,stim,true,1,1076,1,0,2,78689,WMM2,267782,false,false,277,image-keyboard-response,2
true,2,1,1,0,false,q,false,false,0.0-2.0-0.5-0.48-3.48,1,0,0,90,false,stim,true,1,2401,1,0,2,78689,WMM2,271698,false,false,280,image-keyboard-response,3
true,2,0,1,2,false,d,false,false,0.0-2.0-0.5-0.49-3.49,1,0,0,81,false,stim,true,0,816,1,0,1,78689,WMM2,274041,false,false,283,image-keyboard-response,4
false,2,-1,1,1,false,z,true,false,0.0-2.0-0.5-0.50-3.50,1,0,0,,false,stim,false,1,,1,1,0,78689,WMM2,278571,false,false,286,image-keyboard-response,5
true,2,1,1,0,false,q,false,false,0.0-2.0-0.5-0.51-3.51,1,0,0,90,false,stim,true,1,596,1,0,2,78689,WMM2,280690,false,false,289,image-keyboard-response,6
true,2,0,1,2,false,d,false,false,0.0-2.0-0.5-0.52-3.52,1,0,0,81,false,stim,true,0,673,1,0,1,78689,WMM2,282881,false,false,292,image-keyboard-response,7
true,2,0,1,2,false,d,false,false,0.0-2.0-0.5-0.53-3.53,1,0,0,81,false,stim,true,0,737,1,0,1,78689,WMM2,285151,false,false,295,image-keyboard-response,8
true,2,0,1,1,false,z,true,false,0.0-2.0-0.6-0.54-3.54,1,0,0,81,false,stim,false,1,757,1,1,0,78689,WMM2,287425,false,false,298,image-keyboard-response,9
true,2,2,1,0,false,q,true,false,0.0-2.0-0.6-0.55-3.55,1,0,0,68,false,stim,false,1,1069,1,0,2,78689,WMM2,290021,false,false,301,image-keyboard-response,10
true,2,1,1,2,false,d,true,false,0.0-2.0-0.6-0.56-3.56,1,0,0,90,false,stim,false,0,847,1,0,1,78689,WMM2,292389,false,false,304,image-keyboard-response,11
true,2,0,1,1,false,z,true,false,0.0-2.0-0.6-0.57-3.57,1,0,0,81,false,stim,false,1,625,1,1,0,78689,WMM2,294534,false,false,307,image-keyboard-response,12
true,2,1,1,1,true,z,false,true,0.0-2.0-0.6-0.58-3.58,1,0,0,90,false,stim,false,1,716,1,1,0,78689,WMM2,296769,false,false,310,image-keyboard-response,13
true,2,2,1,2,true,d,false,true,0.0-2.0-0.6-0.59-3.59,1,0,0,68,false,stim,false,0,863,1,0,1,78689,WMM2,299150,false,false,313,image-keyboard-response,14
true,2,1,1,0,false,q,false,false,0.0-2.0-0.6-0.60-3.60,1,0,0,90,false,stim,true,1,1350,1,0,2,78689,WMM2,302023,false,false,316,image-keyboard-response,15
true,2,0,1,0,true,q,false,true,0.0-2.0-0.6-0.61-3.61,1,0,0,81,false,stim,false,1,750,1,0,2,78689,WMM2,304298,false,false,319,image-keyboard-response,16
true,2,0,1,2,false,d,false,false,0.0-2.0-0.6-0.62-3.62,1,0,0,81,false,stim,true,0,717,1,0,1,78689,WMM2,306537,false,false,322,image-keyboard-response,17
true,2,1,1,1,true,z,false,true,0.0-2.0-0.7-0.63-3.63,1,0,0,90,false,stim,false,1,669,1,1,0,78689,WMM2,308720,false,false,325,image-keyboard-response,18
true,2,1,1,2,false,d,true,false,0.0-2.0-0.7-0.64-3.64,1,0,0,90,false,stim,false,0,895,1,0,1,78689,WMM2,311129,false,false,328,image-keyboard-response,19
true,2,0,1,0,true,q,false,true,0.0-2.0-0.7-0.65-3.65,1,0,0,81,false,stim,false,1,722,1,0,2,78689,WMM2,313379,false,false,331,image-keyboard-response,20
true,2,2,1,1,false,z,true,false,0.0-2.0-0.7-0.66-3.66,1,0,0,68,false,stim,false,1,773,1,1,0,78689,WMM2,315680,false,false,334,image-keyboard-response,21
true,2,0,1,1,false,z,true,false,0.0-2.0-0.7-0.67-3.67,1,0,0,81,false,stim,false,1,1324,1,1,0,78689,WMM2,318537,false,false,337,image-keyboard-response,22
true,2,1,1,0,false,q,false,false,0.0-2.0-0.7-0.68-3.68,1,0,0,90,false,stim,true,1,469,1,0,2,78689,WMM2,320523,false,false,340,image-keyboard-response,23
true,2,2,1,2,true,d,false,true,0.0-2.0-0.7-0.69-3.69,1,0,0,68,false,stim,false,0,708,1,0,1,78689,WMM2,322752,false,false,343,image-keyboard-response,24
true,2,2,1,0,false,q,true,false,0.0-2.0-0.7-0.70-3.70,1,0,0,68,false,stim,false,1,1077,1,0,2,78689,WMM2,325357,false,false,346,image-keyboard-response,25
true,2,1,1,2,false,d,true,false,0.0-2.0-0.7-0.71-3.71,1,0,0,90,false,stim,false,0,815,1,0,1,78689,WMM2,327693,false,false,349,image-keyboard-response,26
true,2,0,1,0,true,q,false,true,0.0-2.0-0.8-0.72-3.72,1,0,0,81,false,stim,false,1,803,1,0,2,78689,WMM2,330020,false,false,352,image-keyboard-response,27
true,2,1,1,1,true,z,false,true,0.0-2.0-0.8-0.73-3.73,1,0,0,90,false,stim,false,1,949,1,1,0,78689,WMM2,332488,false,false,355,image-keyboard-response,28
true,2,0,1,2,false,d,false,false,0.0-2.0-0.8-0.74-3.74,1,0,0,81,false,stim,true,0,677,1,0,1,78689,WMM2,334683,false,false,358,image-keyboard-response,29
true,2,1,1,2,false,d,true,false,0.0-2.0-0.8-0.75-3.75,1,0,0,90,false,stim,false,0,520,1,0,1,78689,WMM2,336727,false,false,361,image-keyboard-response,30
true,2,0,1,1,false,z,true,false,0.0-2.0-0.8-0.76-3.76,1,0,0,81,false,stim,false,1,487,1,1,0,78689,WMM2,338731,false,false,364,image-keyboard-response,31
true,2,2,1,0,false,q,true,false,0.0-2.0-0.8-0.77-3.77,1,0,0,68,false,stim,false,1,980,1,0,2,78689,WMM2,341237,false,false,367,image-keyboard-response,32
true,2,1,1,2,false,d,true,false,0.0-2.0-0.8-0.78-3.78,1,0,0,90,false,stim,false,0,820,1,0,1,78689,WMM2,343589,false,false,370,image-keyboard-response,33
true,2,1,1,1,true,z,false,true,0.0-2.0-0.8-0.79-3.79,1,0,0,90,false,stim,false,1,695,1,1,0,78689,WMM2,345805,false,false,373,image-keyboard-response,34
true,2,1,1,0,false,q,false,false,0.0-2.0-0.8-0.80-3.80,1,0,0,90,false,stim,true,1,1999,1,0,2,78689,WMM2,349336,false,false,376,image-keyboard-response,35
true,2,2,1,0,false,q,true,false,0.0-2.0-0.9-0.81-3.81,1,0,0,68,false,stim,false,1,850,1,0,2,78689,WMM2,351717,false,false,379,image-keyboard-response,36
true,2,1,1,1,true,z,false,true,0.0-2.0-0.9-0.82-3.82,1,0,0,90,false,stim,false,1,1011,1,1,0,78689,WMM2,354264,false,false,382,image-keyboard-response,37
true,2,1,1,1,true,z,false,true,0.0-2.0-0.9-0.83-3.83,1,0,0,90,false,stim,false,1,636,1,1,0,78689,WMM2,356430,false,false,385,image-keyboard-response,38
true,2,1,1,2,false,d,true,false,0.0-2.0-0.9-0.84-3.84,1,0,0,90,false,stim,false,0,722,1,0,1,78689,WMM2,358679,false,false,388,image-keyboard-response,39
true,2,1,1,2,false,d,true,false,0.0-2.0-0.9-0.85-3.85,1,0,0,90,false,stim,false,0,806,1,0,1,78689,WMM2,361013,false,false,391,image-keyboard-response,40
true,2,1,1,0,false,q,false,true,0.0-2.0-0.9-0.86-3.86,1,0,0,90,false,stim,true,1,1146,1,0,2,78689,WMM2,363685,false,true,394,image-keyboard-response,41
true,2,1,1,1,true,z,false,true,0.0-2.0-0.9-0.87-3.87,1,0,0,90,false,stim,false,1,896,1,1,0,78689,WMM2,366100,false,false,397,image-keyboard-response,42
true,2,1,1,2,false,d,true,false,0.0-2.0-0.9-0.88-3.88,1,0,0,90,false,stim,false,0,641,1,0,1,78689,WMM2,368264,false,false,400,image-keyboard-response,43
true,2,1,1,0,false,q,false,false,0.0-2.0-0.9-0.89-3.89,1,0,0,90,false,stim,true,1,785,1,0,2,78689,WMM2,370583,false,false,403,image-keyboard-response,44
true,2,2,1,0,false,q,true,false,0.0-2.0-0.10-0.90-3.90,1,0,0,68,false,stim,false,1,717,1,0,2,78689,WMM2,372819,false,false,406,image-keyboard-response,45
true,2,0,1,0,true,q,false,true,0.0-2.0-0.10-0.91-3.91,1,0,0,81,false,stim,false,1,854,1,0,2,78689,WMM2,375191,false,false,409,image-keyboard-response,46
true,2,0,1,2,false,d,false,false,0.0-2.0-0.10-0.92-3.92,1,0,0,81,false,stim,true,0,561,1,0,1,78689,WMM2,377283,false,false,412,image-keyboard-response,47
true,2,1,1,1,true,z,false,false,0.0-2.0-0.10-0.93-3.93,1,0,0,90,false,stim,false,1,813,1,1,0,78689,WMM2,379626,false,true,415,image-keyboard-response,48
true,2,2,1,1,false,z,true,false,0.0-2.0-0.10-0.94-3.94,1,0,0,68,false,stim,false,1,640,1,1,0,78689,WMM2,381789,false,false,418,image-keyboard-response,49
true,2,0,1,2,false,d,false,false,0.0-2.0-0.10-0.95-3.95,1,0,0,81,false,stim,true,0,755,1,0,1,78689,WMM2,384071,false,false,421,image-keyboard-response,50
true,2,1,1,2,false,d,true,false,0.0-2.0-0.10-0.96-3.96,1,0,0,90,false,stim,false,0,822,1,0,1,78689,WMM2,386410,false,false,424,image-keyboard-response,51
true,2,2,1,0,false,q,true,true,0.0-2.0-0.10-0.97-3.97,1,0,0,68,false,stim,false,1,721,1,1,2,78689,WMM2,388648,false,true,427,image-keyboard-response,52
true,2,2,1,1,false,z,true,false,0.0-2.0-0.10-0.98-3.98,1,0,0,68,false,stim,false,1,1098,1,1,0,78689,WMM2,391262,false,false,430,image-keyboard-response,53
true,2,1,1,1,true,z,false,true,0.0-2.0-0.11-0.99-3.99,1,0,0,90,false,stim,false,1,641,1,1,0,78689,WMM2,393431,false,false,433,image-keyboard-response,54
true,2,1,1,2,false,d,true,false,0.0-2.0-0.11-0.100-3.100,1,0,0,90,false,stim,false,0,1079,1,0,1,78689,WMM2,396027,false,false,436,image-keyboard-response,55
true,2,2,1,0,false,q,true,false,0.0-2.0-0.11-0.101-3.101,1,0,0,68,false,stim,false,1,523,1,1,2,78689,WMM2,398066,false,false,439,image-keyboard-response,56
true,2,0,1,2,false,d,false,false,0.0-2.0-0.11-0.102-3.102,1,0,0,81,false,stim,true,0,846,1,0,1,78689,WMM2,400438,false,false,442,image-keyboard-response,57
true,2,1,1,0,false,q,false,false,0.0-2.0-0.11-0.103-3.103,1,0,0,90,false,stim,true,1,790,1,1,2,78689,WMM2,402757,false,false,445,image-keyboard-response,58
true,2,1,1,2,false,d,true,false,0.0-2.0-0.11-0.104-3.104,1,0,0,90,false,stim,false,0,1455,1,0,1,78689,WMM2,405733,false,false,448,image-keyboard-response,59
true,2,0,1,1,false,z,true,true,0.0-2.0-0.11-0.105-3.105,1,0,0,81,false,stim,false,1,639,1,1,0,78689,WMM2,407897,false,true,451,image-keyboard-response,60
true,3,2,3,0,false,q,true,true,0.0-2.0-0.11-0.106-3.106,1,0,1,68,true,stim,false,0,629,1,1,2,78689,WMM2,410056,false,true,454,image-keyboard-response,1
true,3,0,3,1,false,z,true,false,0.0-2.0-0.11-0.107-3.107,1,0,1,81,false,stim,false,1,443,1,1,0,78689,WMM2,412019,false,false,457,image-keyboard-response,2
true,3,1,3,1,true,z,false,true,0.0-2.0-0.12-0.108-3.108,1,0,1,90,false,stim,false,2,797,1,0,1,78689,WMM2,414333,false,false,460,image-keyboard-response,3
true,3,2,3,0,false,q,true,true,0.0-2.0-0.12-0.109-3.109,1,0,1,68,false,stim,false,0,1040,1,1,2,78689,WMM2,416895,false,true,463,image-keyboard-response,4
true,3,2,3,0,false,q,true,false,0.0-2.0-0.12-0.110-3.110,1,0,1,68,false,stim,false,0,559,1,1,2,78689,WMM2,418982,false,false,466,image-keyboard-response,5
true,3,0,3,1,false,z,true,true,0.0-2.0-0.12-0.111-3.111,1,0,1,81,false,stim,false,2,714,1,0,1,78689,WMM2,421221,false,true,469,image-keyboard-response,6
true,3,1,3,1,true,z,false,false,0.0-2.0-0.12-0.112-3.112,1,0,1,90,false,stim,false,1,611,1,1,0,78689,WMM2,423359,false,true,472,image-keyboard-response,7
true,3,0,3,1,false,z,true,false,0.0-2.0-0.12-0.113-3.113,1,0,1,81,false,stim,false,2,980,1,0,1,78689,WMM2,425860,false,false,475,image-keyboard-response,8
true,3,1,3,1,true,z,false,true,0.0-2.0-0.12-0.114-3.114,1,0,1,90,false,stim,false,1,938,1,1,0,78689,WMM2,428319,false,false,478,image-keyboard-response,9
true,3,2,3,0,false,q,true,false,0.0-2.0-0.12-0.115-3.115,1,0,1,68,false,stim,false,0,614,1,1,2,78689,WMM2,430443,false,false,481,image-keyboard-response,10
true,3,0,3,1,false,z,true,false,0.0-2.0-0.12-0.116-3.116,1,0,1,81,false,stim,false,1,1016,1,1,0,78689,WMM2,432986,false,false,484,image-keyboard-response,11
true,3,0,3,1,false,z,true,false,0.0-2.0-0.13-0.117-3.117,1,0,1,81,false,stim,false,2,691,1,0,1,78689,WMM2,435200,false,false,487,image-keyboard-response,12
true,3,1,3,1,true,z,false,false,0.0-2.0-0.13-0.118-3.118,1,0,1,90,false,stim,false,1,2505,1,1,0,78689,WMM2,439224,false,true,490,image-keyboard-response,13
true,3,1,3,1,true,z,false,true,0.0-2.0-0.13-0.119-3.119,1,0,1,90,false,stim,false,1,611,1,1,0,78689,WMM2,441357,false,false,493,image-keyboard-response,14
true,3,0,3,1,false,z,true,false,0.0-2.0-0.13-0.120-3.120,1,0,1,81,false,stim,false,2,1391,1,0,1,78689,WMM2,444268,false,false,496,image-keyboard-response,15
true,3,2,3,0,false,q,true,false,0.0-2.0-0.13-0.121-3.121,1,0,1,68,false,stim,false,0,549,1,1,2,78689,WMM2,446332,false,false,499,image-keyboard-response,16
true,3,2,3,0,false,q,true,false,0.0-2.0-0.13-0.122-3.122,1,0,1,68,false,stim,false,0,1364,1,1,2,78689,WMM2,449237,false,false,502,image-keyboard-response,17
true,3,0,3,1,false,z,true,false,0.0-2.0-0.13-0.123-3.123,1,0,1,81,false,stim,false,2,513,1,0,1,78689,WMM2,451276,false,false,505,image-keyboard-response,18
true,3,2,3,0,false,q,true,true,0.0-2.0-0.13-0.124-3.124,1,0,1,68,false,stim,false,0,544,1,1,2,78689,WMM2,453346,false,true,508,image-keyboard-response,19
true,3,1,3,1,true,z,false,true,0.0-2.0-0.13-0.125-3.125,1,0,1,90,false,stim,false,1,982,1,1,0,78689,WMM2,455858,false,false,511,image-keyboard-response,20
true,3,0,3,1,false,z,true,false,0.0-2.0-0.14-0.126-3.126,1,0,1,81,false,stim,false,2,1202,1,0,1,78689,WMM2,458586,false,false,514,image-keyboard-response,21
true,3,1,3,1,true,z,false,true,0.0-2.0-0.14-0.127-3.127,1,0,1,90,false,stim,false,1,559,1,1,0,78689,WMM2,460677,false,false,517,image-keyboard-response,22
true,3,1,3,1,true,z,false,true,0.0-2.0-0.14-0.128-3.128,1,0,1,90,false,stim,false,2,1028,1,0,1,78689,WMM2,463232,false,false,520,image-keyboard-response,23
true,3,2,3,1,false,z,true,false,0.0-2.0-0.14-0.129-3.129,1,0,1,68,false,stim,false,1,1619,1,1,0,78689,WMM2,466367,false,false,523,image-keyboard-response,24
true,3,1,3,1,true,z,false,true,0.0-2.0-0.14-0.130-3.130,1,0,1,90,false,stim,false,2,1155,1,0,1,78689,WMM2,469049,false,false,526,image-keyboard-response,25
true,3,2,3,0,false,q,true,false,0.0-2.0-0.14-0.131-3.131,1,0,1,68,false,stim,false,0,695,1,1,2,78689,WMM2,471269,false,false,529,image-keyboard-response,26
true,3,0,3,0,true,q,false,true,0.0-2.0-0.14-0.132-3.132,1,0,1,81,false,stim,false,0,847,1,1,2,78689,WMM2,473636,false,false,532,image-keyboard-response,27
true,3,1,3,1,true,z,false,false,0.0-2.0-0.14-0.133-3.133,1,0,1,90,false,stim,false,1,1154,1,1,0,78689,WMM2,476306,false,true,535,image-keyboard-response,28
true,3,2,3,0,false,q,true,false,0.0-2.0-0.14-0.134-3.134,1,0,1,68,false,stim,false,0,601,1,1,2,78689,WMM2,478425,false,false,538,image-keyboard-response,29
false,3,-1,3,1,false,z,true,false,0.0-2.0-0.15-0.135-3.135,1,0,1,,false,stim,false,2,,1,0,1,78689,WMM2,482971,false,false,541,image-keyboard-response,30
true,3,2,3,1,false,z,false,false,0.0-2.0-0.15-0.136-3.136,1,0,1,68,false,stim,true,2,813,1,0,1,78689,WMM2,485302,false,false,544,image-keyboard-response,31
true,3,1,3,1,true,z,false,true,0.0-2.0-0.15-0.137-3.137,1,0,1,90,false,stim,false,1,866,1,1,0,78689,WMM2,487689,false,false,547,image-keyboard-response,32
true,3,0,3,0,true,q,false,true,0.0-2.0-0.15-0.138-3.138,1,0,1,81,false,stim,false,0,1057,1,1,2,78689,WMM2,490271,false,false,550,image-keyboard-response,33
true,3,1,3,1,true,z,false,true,0.0-2.0-0.15-0.139-3.139,1,0,1,90,false,stim,false,2,2636,1,0,1,78689,WMM2,494439,false,false,553,image-keyboard-response,34
true,3,2,3,0,false,q,true,false,0.0-2.0-0.15-0.140-3.140,1,0,1,68,false,stim,false,0,1782,1,1,2,78689,WMM2,497753,false,false,556,image-keyboard-response,35
true,3,1,3,1,true,z,false,true,0.0-2.0-0.15-0.141-3.141,1,0,1,90,false,stim,false,1,599,1,1,0,78689,WMM2,499871,false,false,559,image-keyboard-response,36
true,3,1,3,0,false,q,true,false,0.0-2.0-0.15-0.142-3.142,1,0,1,90,false,stim,false,0,732,1,1,2,78689,WMM2,502137,false,false,562,image-keyboard-response,37
true,3,1,3,1,true,z,false,true,0.0-2.0-0.15-0.143-3.143,1,0,1,90,false,stim,false,1,933,1,1,0,78689,WMM2,504602,false,false,565,image-keyboard-response,38
true,3,0,3,0,true,q,false,true,0.0-2.0-0.16-0.144-3.144,1,0,1,81,false,stim,false,0,2057,1,1,2,78689,WMM2,508170,false,false,568,image-keyboard-response,39
true,3,0,3,1,false,z,true,false,0.0-2.0-0.16-0.145-3.145,1,0,1,81,false,stim,false,2,1249,1,0,1,78689,WMM2,510943,false,false,571,image-keyboard-response,40
true,3,1,3,1,true,z,false,true,0.0-2.0-0.16-0.146-3.146,1,0,1,90,false,stim,false,1,1054,1,1,0,78689,WMM2,513517,false,false,574,image-keyboard-response,41
true,3,1,3,0,false,q,true,false,0.0-2.0-0.16-0.147-3.147,1,0,1,90,false,stim,false,0,447,1,1,2,78689,WMM2,515501,false,false,577,image-keyboard-response,42
true,3,2,3,1,false,z,true,false,0.0-2.0-0.16-0.148-3.148,1,0,1,68,false,stim,false,1,1013,1,1,0,78689,WMM2,518040,false,false,580,image-keyboard-response,43
true,3,1,3,0,false,q,true,false,0.0-2.0-0.16-0.149-3.149,1,0,1,90,false,stim,false,0,1063,1,1,2,78689,WMM2,520621,false,false,583,image-keyboard-response,44
true,3,0,3,1,false,z,true,false,0.0-2.0-0.16-0.150-3.150,1,0,1,81,false,stim,false,2,815,1,0,1,78689,WMM2,522968,false,false,586,image-keyboard-response,45
true,3,2,3,1,false,z,false,false,0.0-2.0-0.16-0.151-3.151,1,0,1,68,false,stim,true,2,912,1,0,1,78689,WMM2,525407,false,false,589,image-keyboard-response,46
true,3,1,3,1,true,z,false,true,0.0-2.0-0.16-0.152-3.152,1,0,1,90,false,stim,false,1,953,1,1,0,78689,WMM2,527881,false,false,592,image-keyboard-response,47
true,3,0,3,1,false,z,true,false,0.0-2.0-0.17-0.153-3.153,1,0,1,81,false,stim,false,2,2840,1,0,1,78689,WMM2,532252,false,false,595,image-keyboard-response,48
true,3,1,3,0,false,q,true,false,0.0-2.0-0.17-0.154-3.154,1,0,1,90,false,stim,false,0,760,1,1,2,78689,WMM2,534534,false,false,598,image-keyboard-response,49
true,3,0,3,0,true,q,false,true,0.0-2.0-0.17-0.155-3.155,1,0,1,81,false,stim,false,0,2063,1,1,2,78689,WMM2,538146,false,false,601,image-keyboard-response,50
true,3,0,3,1,false,z,true,false,0.0-2.0-0.17-0.156-3.156,1,0,1,81,false,stim,false,2,736,1,0,1,78689,WMM2,540400,false,false,604,image-keyboard-response,51
true,3,2,3,0,false,q,true,true,0.0-2.0-0.17-0.157-3.157,1,0,1,68,false,stim,false,0,1062,1,1,2,78689,WMM2,542972,false,true,607,image-keyboard-response,52
true,3,2,3,1,false,z,true,false,0.0-2.0-0.17-0.158-3.158,1,0,1,68,false,stim,false,1,739,1,1,0,78689,WMM2,545227,false,false,610,image-keyboard-response,53
true,3,0,3,1,false,z,true,false,0.0-2.0-0.17-0.159-3.159,1,0,1,81,false,stim,false,1,1388,1,1,0,78689,WMM2,548138,false,false,613,image-keyboard-response,54
true,3,1,3,1,true,z,false,true,0.0-2.0-0.17-0.160-3.160,1,0,1,90,false,stim,false,2,493,1,0,1,78689,WMM2,550154,false,false,616,image-keyboard-response,55
true,3,0,3,1,false,z,true,false,0.0-2.0-0.17-0.161-3.161,1,0,1,81,false,stim,false,1,1175,1,1,0,78689,WMM2,552846,false,false,619,image-keyboard-response,56
true,3,1,3,1,true,z,false,true,0.0-2.0-0.18-0.162-3.162,1,0,1,90,false,stim,false,2,1056,1,0,1,78689,WMM2,555422,false,false,622,image-keyboard-response,57
true,3,1,3,1,true,z,false,true,0.0-2.0-0.18-0.163-3.163,1,0,1,90,false,stim,false,2,441,1,0,1,78689,WMM2,557390,false,false,625,image-keyboard-response,58
true,3,2,3,0,false,q,true,false,0.0-2.0-0.18-0.164-3.164,1,0,1,68,false,stim,false,0,516,1,1,2,78689,WMM2,559423,false,false,628,image-keyboard-response,59
true,3,2,3,1,false,z,true,false,0.0-2.0-0.18-0.165-3.165,1,0,1,68,false,stim,false,1,965,1,1,0,78689,WMM2,561909,false,false,631,image-keyboard-response,60
true,4,1,4,0,false,q,true,false,0.0-2.0-0.18-0.166-3.166,1,0,1,90,true,stim,false,0,1091,1,1,2,78689,WMM2,564520,false,false,634,image-keyboard-response,1
true,4,0,4,1,false,z,true,false,0.0-2.0-0.18-0.167-3.167,1,0,1,81,false,stim,false,1,934,1,1,0,78689,WMM2,566972,false,false,637,image-keyboard-response,2
true,4,0,4,1,false,z,true,false,0.0-2.0-0.18-0.168-3.168,1,0,1,81,false,stim,false,1,915,1,0,1,78689,WMM2,569398,false,false,640,image-keyboard-response,3
true,4,0,4,0,true,q,false,false,0.0-2.0-0.18-0.169-3.169,1,0,1,81,false,stim,false,0,1261,1,1,2,78689,WMM2,572172,false,true,643,image-keyboard-response,4
true,4,1,4,1,true,z,false,true,0.0-2.0-0.18-0.170-3.170,1,0,1,90,false,stim,false,1,741,1,1,0,78689,WMM2,574441,false,false,646,image-keyboard-response,5
true,4,1,4,1,true,z,false,true,0.0-2.0-0.19-0.171-3.171,1,0,1,90,false,stim,false,1,583,1,0,1,78689,WMM2,576541,false,false,649,image-keyboard-response,6
true,4,1,4,1,true,z,false,true,0.0-2.0-0.19-0.172-3.172,1,0,1,90,false,stim,false,1,420,1,0,1,78689,WMM2,578484,false,false,652,image-keyboard-response,7
true,4,2,4,1,false,z,true,false,0.0-2.0-0.19-0.173-3.173,1,0,1,68,false,stim,false,1,1969,1,1,0,78689,WMM2,581961,false,false,655,image-keyboard-response,8
true,4,1,4,0,false,q,true,false,0.0-2.0-0.19-0.174-3.174,1,0,1,90,false,stim,false,0,853,1,1,2,78689,WMM2,584319,false,false,658,image-keyboard-response,9
true,4,0,4,0,true,q,false,true,0.0-2.0-0.19-0.175-3.175,1,0,1,81,false,stim,false,0,402,1,1,2,78689,WMM2,586239,false,false,661,image-keyboard-response,10
true,4,2,4,1,false,z,true,false,0.0-2.0-0.19-0.176-3.176,1,0,1,68,false,stim,false,1,1721,1,1,0,78689,WMM2,589465,false,false,664,image-keyboard-response,11
true,4,0,4,1,false,z,true,false,0.0-2.0-0.19-0.177-3.177,1,0,1,81,false,stim,false,1,417,1,1,0,78689,WMM2,591405,false,false,667,image-keyboard-response,12
true,4,0,4,0,true,q,false,true,0.0-2.0-0.19-0.178-3.178,1,0,1,81,false,stim,false,0,1251,1,1,2,78689,WMM2,594176,false,false,670,image-keyboard-response,13
true,4,0,4,1,false,z,true,false,0.0-2.0-0.19-0.179-3.179,1,0,1,81,false,stim,false,1,896,1,0,1,78689,WMM2,596594,false,false,673,image-keyboard-response,14
true,4,1,4,0,false,q,true,false,0.0-2.0-0.20-0.180-3.180,1,0,1,90,false,stim,false,0,1960,1,1,2,78689,WMM2,600069,false,false,676,image-keyboard-response,15
true,4,2,4,0,false,q,true,false,0.0-2.0-0.20-0.181-3.181,1,0,1,68,false,stim,false,0,761,1,1,2,78689,WMM2,602352,false,false,679,image-keyboard-response,16
true,4,1,4,0,false,q,true,false,0.0-2.0-0.20-0.182-3.182,1,0,1,90,false,stim,false,0,451,1,1,2,78689,WMM2,604334,false,false,682,image-keyboard-response,17
true,4,0,4,1,false,z,true,false,0.0-2.0-0.20-0.183-3.183,1,0,1,81,false,stim,false,1,742,1,0,1,78689,WMM2,606598,false,false,685,image-keyboard-response,18
true,4,1,4,1,true,z,false,true,0.0-2.0-0.20-0.184-3.184,1,0,1,90,false,stim,false,1,425,1,0,1,78689,WMM2,608540,false,false,688,image-keyboard-response,19
true,4,2,4,1,false,z,true,false,0.0-2.0-0.20-0.185-3.185,1,0,1,68,false,stim,false,1,1078,1,1,0,78689,WMM2,611139,false,false,691,image-keyboard-response,20
true,4,1,4,1,true,z,false,false,0.0-2.0-0.20-0.186-3.186,1,0,1,90,false,stim,false,1,668,1,1,0,78689,WMM2,613326,false,true,694,image-keyboard-response,21
true,4,0,4,1,false,z,true,false,0.0-2.0-0.20-0.187-3.187,1,0,1,81,false,stim,false,1,423,1,1,0,78689,WMM2,615273,false,false,697,image-keyboard-response,22
true,4,1,4,1,true,z,false,true,0.0-2.0-0.20-0.188-3.188,1,0,1,90,false,stim,false,1,1125,1,0,1,78689,WMM2,617916,false,false,700,image-keyboard-response,23
true,4,1,4,1,true,z,false,true,0.0-2.0-0.21-0.189-3.189,1,0,1,90,false,stim,false,1,2494,1,0,1,78689,WMM2,621934,false,false,703,image-keyboard-response,24
true,4,2,4,0,false,q,true,false,0.0-2.0-0.21-0.190-3.190,1,0,1,68,false,stim,false,0,2159,1,1,2,78689,WMM2,625621,false,false,706,image-keyboard-response,25
true,4,0,4,1,false,z,true,false,0.0-2.0-0.21-0.191-3.191,1,0,1,81,false,stim,false,1,1542,1,1,0,78689,WMM2,628693,false,false,709,image-keyboard-response,26
true,4,1,4,0,false,q,true,false,0.0-2.0-0.21-0.192-3.192,1,0,1,90,false,stim,false,0,395,1,1,2,78689,WMM2,630610,false,false,712,image-keyboard-response,27
true,4,2,4,1,false,z,true,false,0.0-2.0-0.21-0.193-3.193,1,0,1,68,false,stim,false,1,873,1,1,0,78689,WMM2,633005,false,false,715,image-keyboard-response,28
true,4,1,4,1,true,z,false,true,0.0-2.0-0.21-0.194-3.194,1,0,1,90,false,stim,false,1,1974,1,0,1,78689,WMM2,636489,false,false,718,image-keyboard-response,29
true,4,0,4,0,true,q,false,true,0.0-2.0-0.21-0.195-3.195,1,0,1,81,false,stim,false,0,502,1,1,2,78689,WMM2,638507,false,false,721,image-keyboard-response,30
true,4,0,4,1,false,z,true,true,0.0-2.0-0.21-0.196-3.196,1,0,1,81,false,stim,false,1,562,1,0,1,78689,WMM2,640588,false,true,724,image-keyboard-response,31
true,4,1,4,1,true,z,false,true,0.0-2.0-0.21-0.197-3.197,1,0,1,90,false,stim,false,1,816,1,1,0,78689,WMM2,642913,false,false,727,image-keyboard-response,32
true,4,1,4,1,true,z,false,true,0.0-2.0-0.22-0.198-3.198,1,0,1,90,false,stim,false,1,528,1,1,0,78689,WMM2,644959,false,false,730,image-keyboard-response,33
true,4,2,4,0,false,q,true,false,0.0-2.0-0.22-0.199-3.199,1,0,1,68,false,stim,false,0,745,1,1,2,78689,WMM2,647226,false,false,733,image-keyboard-response,34
true,4,1,4,1,true,z,false,true,0.0-2.0-0.22-0.200-3.200,1,0,1,90,false,stim,false,1,426,1,1,0,78689,WMM2,649185,false,false,736,image-keyboard-response,35
true,4,0,4,1,false,z,true,false,0.0-2.0-0.22-0.201-3.201,1,0,1,81,false,stim,false,1,922,1,0,1,78689,WMM2,651623,false,false,739,image-keyboard-response,36
true,4,1,4,1,true,z,false,true,0.0-2.0-0.22-0.202-3.202,1,0,1,90,false,stim,false,1,1221,1,1,0,78689,WMM2,654371,false,false,742,image-keyboard-response,37
true,4,1,4,0,false,q,true,false,0.0-2.0-0.22-0.203-3.203,1,0,1,90,false,stim,false,0,759,1,1,2,78689,WMM2,656657,false,false,745,image-keyboard-response,38
true,4,0,4,0,true,q,false,true,0.0-2.0-0.22-0.204-3.204,1,0,1,81,false,stim,false,0,641,1,1,2,78689,WMM2,658825,false,false,748,image-keyboard-response,39
true,4,1,4,1,true,z,false,true,0.0-2.0-0.22-0.205-3.205,1,0,1,90,false,stim,false,1,1148,1,0,1,78689,WMM2,661511,false,false,751,image-keyboard-response,40
true,4,1,4,1,true,z,false,true,0.0-2.0-0.22-0.206-3.206,1,0,1,90,false,stim,false,1,424,1,0,1,78689,WMM2,663468,false,false,754,image-keyboard-response,41
true,4,1,4,1,true,z,false,false,0.0-2.0-0.23-0.207-3.207,1,0,1,90,false,stim,false,1,379,1,0,1,78689,WMM2,665372,false,true,757,image-keyboard-response,42
true,4,1,4,1,true,z,false,true,0.0-2.0-0.23-0.208-3.208,1,0,1,90,false,stim,false,1,413,1,0,1,78689,WMM2,667311,false,false,760,image-keyboard-response,43
true,4,1,4,1,true,z,false,true,0.0-2.0-0.23-0.209-3.209,1,0,1,90,false,stim,false,1,607,1,1,0,78689,WMM2,669456,false,false,763,image-keyboard-response,44
true,4,1,4,1,true,z,false,true,0.0-2.0-0.23-0.210-3.210,1,0,1,90,false,stim,false,1,464,1,1,0,78689,WMM2,671451,false,false,766,image-keyboard-response,45
true,4,1,4,0,false,q,true,false,0.0-2.0-0.23-0.211-3.211,1,0,1,90,false,stim,false,0,1670,1,1,2,78689,WMM2,674642,false,false,769,image-keyboard-response,46
true,4,1,4,1,true,z,false,true,0.0-2.0-0.23-0.212-3.212,1,0,1,90,false,stim,false,1,514,1,0,1,78689,WMM2,676691,false,false,772,image-keyboard-response,47
true,4,0,4,0,true,q,false,true,0.0-2.0-0.23-0.213-3.213,1,0,1,81,false,stim,false,0,1586,1,1,2,78689,WMM2,679810,false,false,775,image-keyboard-response,48
true,4,1,4,1,true,z,false,true,0.0-2.0-0.23-0.214-3.214,1,0,1,90,false,stim,false,1,1214,1,1,0,78689,WMM2,682551,false,false,778,image-keyboard-response,49
true,4,1,4,0,false,q,true,false,0.0-2.0-0.23-0.215-3.215,1,0,1,90,false,stim,false,0,1858,1,1,2,78689,WMM2,685931,false,false,781,image-keyboard-response,50
true,4,1,4,1,true,z,false,true,0.0-2.0-0.24-0.216-3.216,1,0,1,90,false,stim,false,1,437,1,1,0,78689,WMM2,687897,false,false,784,image-keyboard-response,51
true,4,1,4,0,false,q,true,false,0.0-2.0-0.24-0.217-3.217,1,0,1,90,false,stim,false,0,1387,1,1,2,78689,WMM2,690801,false,false,787,image-keyboard-response,52
true,4,0,4,1,false,z,true,false,0.0-2.0-0.24-0.218-3.218,1,0,1,81,false,stim,false,1,1603,1,0,1,78689,WMM2,693934,false,false,790,image-keyboard-response,53
true,4,1,4,1,true,z,false,true,0.0-2.0-0.24-0.219-3.219,1,0,1,90,false,stim,false,1,964,1,0,1,78689,WMM2,696414,false,false,793,image-keyboard-response,54
true,4,0,4,0,true,q,false,true,0.0-2.0-0.24-0.220-3.220,1,0,1,81,false,stim,false,0,609,1,1,2,78689,WMM2,698550,false,false,796,image-keyboard-response,55
true,4,1,4,1,true,z,false,true,0.0-2.0-0.24-0.221-3.221,1,0,1,90,false,stim,false,1,1663,1,1,0,78689,WMM2,701738,false,false,799,image-keyboard-response,56
true,4,0,4,0,true,q,false,true,0.0-2.0-0.24-0.222-3.222,1,0,1,81,false,stim,false,0,1385,1,1,2,78689,WMM2,704671,false,false,802,image-keyboard-response,57
true,4,1,4,1,true,z,false,true,0.0-2.0-0.24-0.223-3.223,1,0,1,90,false,stim,false,1,2801,1,0,1,78689,WMM2,708995,false,false,805,image-keyboard-response,58
false,4,-1,4,1,false,z,true,false,0.0-2.0-0.24-0.224-3.224,1,0,1,,false,stim,false,1,,1,1,0,78689,WMM2,713527,false,false,808,image-keyboard-response,59
true,4,1,4,1,true,z,false,true,0.0-2.0-0.25-0.225-3.225,1,0,1,90,false,stim,false,1,2431,1,0,1,78689,WMM2,717481,false,false,811,image-keyboard-response,60
true,5,1,2,0,false,q,false,false,0.0-2.0-0.25-0.226-3.226,1,0,1,90,true,stim,true,1,822,1,0,1,78689,WMM2,719821,false,false,814,image-keyboard-response,1
true,5,0,2,0,true,q,false,true,0.0-2.0-0.25-0.227-3.227,1,0,1,81,false,stim,false,0,881,1,1,2,78689,WMM2,722229,false,false,817,image-keyboard-response,2
true,5,1,2,1,true,z,false,true,0.0-2.0-0.25-0.228-3.228,1,0,1,90,false,stim,false,1,839,1,1,0,78689,WMM2,724600,false,false,820,image-keyboard-response,3
true,5,0,2,0,true,q,false,true,0.0-2.0-0.25-0.229-3.229,1,0,1,81,false,stim,false,0,1026,1,1,2,78689,WMM2,727154,false,false,823,image-keyboard-response,4
true,5,1,2,1,true,z,false,true,0.0-2.0-0.25-0.230-3.230,1,0,1,90,false,stim,false,1,561,1,1,0,78689,WMM2,729238,false,false,826,image-keyboard-response,5
true,5,1,2,0,false,q,false,false,0.0-2.0-0.25-0.231-3.231,1,0,1,90,false,stim,true,1,1137,1,0,1,78689,WMM2,731901,false,false,829,image-keyboard-response,6
true,5,1,2,0,false,q,true,false,0.0-2.0-0.25-0.232-3.232,1,0,1,90,false,stim,false,0,2599,1,1,2,78689,WMM2,736028,false,false,832,image-keyboard-response,7
true,5,1,2,1,true,z,false,true,0.0-2.0-0.25-0.233-3.233,1,0,1,90,false,stim,false,1,830,1,1,0,78689,WMM2,738391,false,false,835,image-keyboard-response,8
true,5,1,2,0,false,q,false,false,0.0-2.0-0.26-0.234-3.234,1,0,1,90,false,stim,true,1,1382,1,0,1,78689,WMM2,741290,false,false,838,image-keyboard-response,9
true,5,0,2,0,true,q,false,true,0.0-2.0-0.26-0.235-3.235,1,0,1,81,false,stim,false,0,712,1,1,2,78689,WMM2,743536,false,false,841,image-keyboard-response,10
true,5,0,2,0,true,q,false,true,0.0-2.0-0.26-0.236-3.236,1,0,1,81,false,stim,false,0,1416,1,1,2,78689,WMM2,746484,false,false,844,image-keyboard-response,11
true,5,1,2,1,true,z,false,true,0.0-2.0-0.26-0.237-3.237,1,0,1,90,false,stim,false,1,645,1,1,0,78689,WMM2,748645,false,false,847,image-keyboard-response,12
true,5,1,2,1,true,z,false,true,0.0-2.0-0.26-0.238-3.238,1,0,1,90,false,stim,false,1,1245,1,1,0,78689,WMM2,751409,false,false,850,image-keyboard-response,13
true,5,1,2,0,false,q,false,true,0.0-2.0-0.26-0.239-3.239,1,0,1,90,false,stim,true,1,508,1,0,1,78689,WMM2,753428,false,true,853,image-keyboard-response,14
true,5,0,2,0,true,q,false,true,0.0-2.0-0.26-0.240-3.240,1,0,1,81,false,stim,false,0,1022,1,1,2,78689,WMM2,755975,false,false,856,image-keyboard-response,15
true,5,1,2,0,false,q,false,false,0.0-2.0-0.26-0.241-3.241,1,0,1,90,false,stim,true,1,1283,1,0,1,78689,WMM2,758780,false,false,859,image-keyboard-response,16
true,5,1,2,1,true,z,false,true,0.0-2.0-0.26-0.242-3.242,1,0,1,90,false,stim,false,1,1151,1,1,0,78689,WMM2,761450,false,false,862,image-keyboard-response,17
true,5,1,2,1,true,z,false,true,0.0-2.0-0.27-0.243-3.243,1,0,1,90,false,stim,false,1,949,1,1,0,78689,WMM2,763923,false,false,865,image-keyboard-response,18
true,5,1,2,0,false,q,false,false,0.0-2.0-0.27-0.244-3.244,1,0,1,90,false,stim,true,1,667,1,0,1,78689,WMM2,766117,false,false,868,image-keyboard-response,19
true,5,0,2,0,true,q,false,true,0.0-2.0-0.27-0.245-3.245,1,0,1,81,false,stim,false,0,571,1,1,2,78689,WMM2,768201,false,false,871,image-keyboard-response,20
true,5,1,2,0,false,q,false,false,0.0-2.0-0.27-0.246-3.246,1,0,1,90,false,stim,true,1,510,1,0,1,78689,WMM2,770238,false,false,874,image-keyboard-response,21
true,5,1,2,1,true,z,false,true,0.0-2.0-0.27-0.247-3.247,1,0,1,90,false,stim,false,1,737,1,1,0,78689,WMM2,772502,false,false,877,image-keyboard-response,22
true,5,1,2,0,false,q,false,false,0.0-2.0-0.27-0.248-3.248,1,0,1,90,false,stim,true,1,747,1,0,1,78689,WMM2,774789,false,false,880,image-keyboard-response,23
true,5,0,2,0,true,q,false,true,0.0-2.0-0.27-0.249-3.249,1,0,1,81,false,stim,false,0,1250,1,1,2,78689,WMM2,777574,false,false,883,image-keyboard-response,24
true,5,0,2,0,true,q,false,false,0.0-2.0-0.27-0.250-3.250,1,0,1,81,false,stim,false,0,1747,1,1,2,78689,WMM2,780851,false,true,886,image-keyboard-response,25
true,5,1,2,1,true,z,false,true,0.0-2.0-0.27-0.251-3.251,1,0,1,90,false,stim,false,1,1781,1,1,0,78689,WMM2,784164,false,false,889,image-keyboard-response,26
true,5,0,2,0,true,q,false,true,0.0-2.0-0.28-0.252-3.252,1,0,1,81,false,stim,false,0,1703,1,1,2,78689,WMM2,787399,false,false,892,image-keyboard-response,27
false,5,-1,2,0,false,q,true,false,0.0-2.0-0.28-0.253-3.253,1,0,1,,false,stim,false,1,,1,0,1,78689,WMM2,791934,false,false,895,image-keyboard-response,28
true,5,1,2,1,true,z,false,false,0.0-2.0-0.28-0.254-3.254,1,0,1,90,false,stim,false,1,738,1,1,0,78689,WMM2,794211,false,true,898,image-keyboard-response,29
true,5,0,2,0,true,q,false,true,0.0-2.0-0.28-0.255-3.255,1,0,1,81,false,stim,false,0,2404,1,1,2,78689,WMM2,798166,false,false,901,image-keyboard-response,30
true,5,1,2,1,true,z,false,false,0.0-2.0-0.28-0.256-3.256,1,0,1,90,false,stim,false,1,2559,1,1,0,78689,WMM2,802253,false,true,904,image-keyboard-response,31
true,5,0,2,0,true,q,false,true,0.0-2.0-0.28-0.257-3.257,1,0,1,81,false,stim,false,0,872,1,1,2,78689,WMM2,804660,false,false,907,image-keyboard-response,32
true,5,1,2,0,false,q,false,true,0.0-2.0-0.28-0.258-3.258,1,0,1,90,false,stim,true,1,783,1,0,1,78689,WMM2,806970,false,true,910,image-keyboard-response,33
true,5,1,2,0,false,q,false,false,0.0-2.0-0.28-0.259-3.259,1,0,1,90,false,stim,true,1,1966,1,0,1,78689,WMM2,810465,false,false,913,image-keyboard-response,34
true,5,1,2,1,true,z,false,true,0.0-2.0-0.28-0.260-3.260,1,0,1,90,false,stim,false,1,793,1,1,0,78689,WMM2,812791,false,false,916,image-keyboard-response,35
true,5,0,2,0,true,q,false,true,0.0-2.0-0.29-0.261-3.261,1,0,1,81,false,stim,false,0,1556,1,1,2,78689,WMM2,815869,false,false,919,image-keyboard-response,36
true,5,1,2,0,false,q,false,false,0.0-2.0-0.29-0.262-3.262,1,0,1,90,false,stim,true,1,1692,1,0,1,78689,WMM2,819092,false,false,922,image-keyboard-response,37
true,5,1,2,0,false,q,false,false,0.0-2.0-0.29-0.263-3.263,1,0,1,90,false,stim,true,1,551,1,0,1,78689,WMM2,821174,false,false,925,image-keyboard-response,38
true,5,2,2,0,false,q,true,false,0.0-2.0-0.29-0.264-3.264,1,0,1,68,false,stim,false,0,582,1,1,2,78689,WMM2,823285,false,false,928,image-keyboard-response,39
true,5,1,2,1,true,z,false,true,0.0-2.0-0.29-0.265-3.265,1,0,1,90,false,stim,false,1,736,1,1,0,78689,WMM2,825559,false,false,931,image-keyboard-response,40
true,5,1,2,1,true,z,false,false,0.0-2.0-0.29-0.266-3.266,1,0,1,90,false,stim,false,1,641,1,1,0,78689,WMM2,827731,false,true,934,image-keyboard-response,41
true,5,0,2,0,true,q,false,true,0.0-2.0-0.29-0.267-3.267,1,0,1,81,false,stim,false,0,785,1,1,2,78689,WMM2,830054,false,false,937,image-keyboard-response,42
true,5,1,2,1,true,z,false,true,0.0-2.0-0.29-0.268-3.268,1,0,1,90,false,stim,false,1,661,1,1,0,78689,WMM2,832241,false,false,940,image-keyboard-response,43
true,5,0,2,0,true,q,false,true,0.0-2.0-0.29-0.269-3.269,1,0,1,81,false,stim,false,1,888,1,0,1,78689,WMM2,834657,false,false,943,image-keyboard-response,44
true,5,1,2,1,true,z,false,false,0.0-2.0-0.30-0.270-3.270,1,0,1,90,false,stim,false,1,602,1,1,0,78689,WMM2,836782,false,true,946,image-keyboard-response,45
true,5,0,2,0,true,q,false,true,0.0-2.0-0.30-0.271-3.271,1,0,1,81,false,stim,false,1,495,1,0,1,78689,WMM2,838797,false,false,949,image-keyboard-response,46
true,5,0,2,0,true,q,false,true,0.0-2.0-0.30-0.272-3.272,1,0,1,81,false,stim,false,0,647,1,1,2,78689,WMM2,840974,false,false,952,image-keyboard-response,47
true,5,0,2,0,true,q,false,true,0.0-2.0-0.30-0.273-3.273,1,0,1,81,false,stim,false,1,968,1,0,1,78689,WMM2,843481,false,false,955,image-keyboard-response,48
true,5,0,2,0,true,q,false,true,0.0-2.0-0.30-0.274-3.274,1,0,1,81,false,stim,false,1,438,1,0,1,78689,WMM2,845442,false,false,958,image-keyboard-response,49
true,5,1,2,1,true,z,false,true,0.0-2.0-0.30-0.275-3.275,1,0,1,90,false,stim,false,1,895,1,1,0,78689,WMM2,847872,false,false,961,image-keyboard-response,50
true,5,1,2,1,true,z,false,true,0.0-2.0-0.30-0.276-3.276,1,0,1,90,false,stim,false,1,478,1,1,0,78689,WMM2,849879,false,false,964,image-keyboard-response,51
true,5,0,2,0,true,q,false,true,0.0-2.0-0.30-0.277-3.277,1,0,1,81,false,stim,false,0,884,1,1,2,78689,WMM2,852294,false,false,967,image-keyboard-response,52
true,5,0,2,0,true,q,false,true,0.0-2.0-0.30-0.278-3.278,1,0,1,81,false,stim,false,0,1631,1,1,2,78689,WMM2,855455,false,false,970,image-keyboard-response,53
true,5,0,2,0,true,q,false,true,0.0-2.0-0.31-0.279-3.279,1,0,1,81,false,stim,false,1,652,1,0,1,78689,WMM2,857645,false,false,973,image-keyboard-response,54
true,5,0,2,0,true,q,false,true,0.0-2.0-0.31-0.280-3.280,1,0,1,81,false,stim,false,1,435,1,0,1,78689,WMM2,859593,false,false,976,image-keyboard-response,55
true,5,1,2,1,true,z,false,true,0.0-2.0-0.31-0.281-3.281,1,0,1,90,false,stim,false,1,474,1,1,0,78689,WMM2,861601,false,false,979,image-keyboard-response,56
true,5,1,2,1,true,z,false,true,0.0-2.0-0.31-0.282-3.282,1,0,1,90,false,stim,false,1,475,1,1,0,78689,WMM2,863614,false,false,982,image-keyboard-response,57
true,6,0,4,0,true,q,false,true,0.0-2.0-0.31-0.283-3.283,1,0,1,81,true,stim,false,0,640,1,1,2,78689,WMM2,865778,false,false,985,image-keyboard-response,1
true,6,0,4,0,true,q,false,true,0.0-2.0-0.31-0.284-3.284,1,0,1,81,false,stim,false,0,1618,1,1,2,78689,WMM2,868931,false,false,988,image-keyboard-response,2
true,6,0,4,1,false,z,true,true,0.0-2.0-0.31-0.285-3.285,1,0,1,81,false,stim,false,1,545,1,1,0,78689,WMM2,870992,false,true,991,image-keyboard-response,3
true,6,0,4,0,true,q,false,true,0.0-2.0-0.31-0.286-3.286,1,0,1,81,false,stim,false,0,1505,1,0,1,78689,WMM2,874012,false,false,994,image-keyboard-response,4
true,6,0,4,0,true,q,false,true,0.0-2.0-0.31-0.287-3.287,1,0,1,81,false,stim,false,0,2091,1,1,2,78689,WMM2,877615,false,false,997,image-keyboard-response,5
true,6,0,4,0,true,q,false,true,0.0-2.0-0.32-0.288-3.288,1,0,1,81,false,stim,false,0,507,1,1,2,78689,WMM2,879637,false,false,1000,image-keyboard-response,6
true,6,1,4,1,true,z,false,true,0.0-2.0-0.32-0.289-3.289,1,0,1,90,false,stim,false,1,1149,1,1,0,78689,WMM2,882313,false,false,1003,image-keyboard-response,7
true,6,0,4,0,true,q,false,true,0.0-2.0-0.32-0.290-3.290,1,0,1,81,false,stim,false,0,505,1,0,1,78689,WMM2,884334,false,false,1006,image-keyboard-response,8
true,6,1,4,1,true,z,false,false,0.0-2.0-0.32-0.291-3.291,1,0,1,90,false,stim,false,1,553,1,1,0,78689,WMM2,886411,false,true,1009,image-keyboard-response,9
true,6,0,4,0,true,q,false,true,0.0-2.0-0.32-0.292-3.292,1,0,1,81,false,stim,false,0,701,1,1,2,78689,WMM2,888640,false,false,1012,image-keyboard-response,10
true,6,0,4,0,true,q,false,true,0.0-2.0-0.32-0.293-3.293,1,0,1,81,false,stim,false,0,643,1,1,2,78689,WMM2,890801,false,false,1015,image-keyboard-response,11
true,6,0,4,0,true,q,false,true,0.0-2.0-0.32-0.294-3.294,1,0,1,81,false,stim,false,0,1431,1,0,1,78689,WMM2,893750,false,false,1018,image-keyboard-response,12
true,6,0,4,1,false,z,true,false,0.0-2.0-0.32-0.295-3.295,1,0,1,81,false,stim,false,1,1311,1,1,0,78689,WMM2,896580,false,false,1021,image-keyboard-response,13
true,6,1,4,0,false,q,true,false,0.0-2.0-0.32-0.296-3.296,1,0,1,90,false,stim,false,0,1116,1,0,1,78689,WMM2,899230,false,false,1024,image-keyboard-response,14
true,6,0,4,0,true,q,false,true,0.0-2.0-0.33-0.297-3.297,1,0,1,81,false,stim,false,0,788,1,0,1,78689,WMM2,901549,false,false,1027,image-keyboard-response,15
true,6,0,4,0,true,q,false,false,0.0-2.0-0.33-0.298-3.298,1,0,1,81,false,stim,false,0,761,1,1,2,78689,WMM2,903834,false,true,1030,image-keyboard-response,16
true,6,0,4,0,true,q,false,true,0.0-2.0-0.33-0.299-3.299,1,0,1,81,false,stim,false,0,824,1,1,2,78689,WMM2,906188,false,false,1033,image-keyboard-response,17
true,6,1,4,1,true,z,false,true,0.0-2.0-0.33-0.300-3.300,1,0,1,90,false,stim,false,1,1157,1,1,0,78689,WMM2,908867,false,false,1036,image-keyboard-response,18
true,6,0,4,0,true,q,false,true,0.0-2.0-0.33-0.301-3.301,1,0,1,81,false,stim,false,0,472,1,1,2,78689,WMM2,910864,false,false,1039,image-keyboard-response,19
true,6,1,4,0,false,q,true,false,0.0-2.0-0.33-0.302-3.302,1,0,1,90,false,stim,false,0,1858,1,0,1,78689,WMM2,914251,false,false,1042,image-keyboard-response,20
true,6,1,4,1,true,z,false,true,0.0-2.0-0.33-0.303-3.303,1,0,1,90,false,stim,false,1,914,1,1,0,78689,WMM2,916692,false,false,1045,image-keyboard-response,21
true,6,0,4,0,true,q,false,true,0.0-2.0-0.33-0.304-3.304,1,0,1,81,false,stim,false,0,1546,1,0,1,78689,WMM2,919781,false,false,1048,image-keyboard-response,22
true,6,1,4,1,true,z,false,true,0.0-2.0-0.33-0.305-3.305,1,0,1,90,false,stim,false,1,1522,1,1,0,78689,WMM2,922835,false,false,1051,image-keyboard-response,23
true,6,1,4,0,false,q,true,false,0.0-2.0-0.34-0.306-3.306,1,0,1,90,false,stim,false,0,1808,1,0,1,78689,WMM2,926168,false,false,1054,image-keyboard-response,24
true,6,0,4,0,true,q,false,true,0.0-2.0-0.34-0.307-3.307,1,0,1,81,false,stim,false,0,830,1,1,2,78689,WMM2,928535,false,false,1057,image-keyboard-response,25
true,6,0,4,0,true,q,false,true,0.0-2.0-0.34-0.308-3.308,1,0,1,81,false,stim,false,0,1091,1,1,2,78689,WMM2,931148,false,false,1060,image-keyboard-response,26
true,6,0,4,0,true,q,false,true,0.0-2.0-0.34-0.309-3.309,1,0,1,81,false,stim,false,0,1021,1,0,1,78689,WMM2,933700,false,false,1063,image-keyboard-response,27
true,6,1,4,1,true,z,false,true,0.0-2.0-0.34-0.310-3.310,1,0,1,90,false,stim,false,1,1053,1,1,0,78689,WMM2,936287,false,false,1066,image-keyboard-response,28
true,6,1,4,1,true,z,false,true,0.0-2.0-0.34-0.311-3.311,1,0,1,90,false,stim,false,1,1558,1,1,0,78689,WMM2,939387,false,false,1069,image-keyboard-response,29
true,6,1,4,1,true,z,false,false,0.0-2.0-0.34-0.312-3.312,1,0,1,90,false,stim,false,1,1396,1,1,0,78689,WMM2,942310,false,true,1072,image-keyboard-response,30
true,6,1,4,0,false,q,true,false,0.0-2.0-0.34-0.313-3.313,1,0,1,90,false,stim,false,0,1803,1,1,2,78689,WMM2,945642,false,false,1075,image-keyboard-response,31
true,6,0,4,0,true,q,false,true,0.0-2.0-0.34-0.314-3.314,1,0,1,81,false,stim,false,0,1126,1,0,1,78689,WMM2,948305,false,false,1078,image-keyboard-response,32
true,6,0,4,0,true,q,false,true,0.0-2.0-0.35-0.315-3.315,1,0,1,81,false,stim,false,0,1196,1,0,1,78689,WMM2,951045,false,false,1081,image-keyboard-response,33
true,6,0,4,0,true,q,false,true,0.0-2.0-0.35-0.316-3.316,1,0,1,81,false,stim,false,0,705,1,0,1,78689,WMM2,953278,false,false,1084,image-keyboard-response,34
true,6,1,4,1,true,z,false,false,0.0-2.0-0.35-0.317-3.317,1,0,1,90,false,stim,false,1,1881,1,1,0,78689,WMM2,956694,false,true,1087,image-keyboard-response,35
true,6,1,4,0,false,q,true,false,0.0-2.0-0.35-0.318-3.318,1,0,1,90,false,stim,false,0,687,1,1,2,78689,WMM2,958908,false,false,1090,image-keyboard-response,36
true,6,1,4,1,true,z,false,true,0.0-2.0-0.35-0.319-3.319,1,0,1,90,false,stim,false,1,832,1,1,0,78689,WMM2,961281,false,false,1093,image-keyboard-response,37
true,6,0,4,0,true,q,false,true,0.0-2.0-0.35-0.320-3.320,1,0,1,81,false,stim,false,0,654,1,1,2,78689,WMM2,963456,false,false,1096,image-keyboard-response,38
true,6,0,4,0,true,q,false,true,0.0-2.0-0.35-0.321-3.321,1,0,1,81,false,stim,false,0,624,1,1,2,78689,WMM2,965617,false,false,1099,image-keyboard-response,39
true,6,1,4,1,true,z,false,true,0.0-2.0-0.35-0.322-3.322,1,0,1,90,false,stim,false,1,1327,1,0,0,78689,WMM2,968511,false,false,1102,image-keyboard-response,40
true,6,0,4,0,true,q,false,true,0.0-2.0-0.35-0.323-3.323,1,0,1,81,false,stim,false,0,1890,1,0,1,78689,WMM2,971929,false,false,1105,image-keyboard-response,41
true,6,0,4,0,true,q,false,true,0.0-2.0-0.36-0.324-3.324,1,0,1,81,false,stim,false,0,1515,1,1,2,78689,WMM2,974982,false,false,1108,image-keyboard-response,42
true,6,0,4,0,true,q,false,true,0.0-2.0-0.36-0.325-3.325,1,0,1,81,false,stim,false,0,1647,1,0,1,78689,WMM2,978156,false,false,1111,image-keyboard-response,43
true,6,0,4,0,true,q,false,false,0.0-2.0-0.36-0.326-3.326,1,0,1,81,false,stim,false,0,632,1,0,1,78689,WMM2,980304,false,true,1114,image-keyboard-response,44
true,6,1,4,1,true,z,false,true,0.0-2.0-0.36-0.327-3.327,1,0,1,90,false,stim,false,1,1526,1,0,0,78689,WMM2,983350,false,false,1117,image-keyboard-response,45
true,6,0,4,0,true,q,false,true,0.0-2.0-0.36-0.328-3.328,1,0,1,81,false,stim,false,0,1075,1,0,1,78689,WMM2,985961,false,false,1120,image-keyboard-response,46
true,6,0,4,0,true,q,false,true,0.0-2.0-0.36-0.329-3.329,1,0,1,81,false,stim,false,0,1133,1,1,2,78689,WMM2,988616,false,false,1123,image-keyboard-response,47
true,6,1,4,1,true,z,false,true,0.0-2.0-0.36-0.330-3.330,1,0,1,90,false,stim,false,1,3000,1,0,0,78689,WMM2,993134,false,false,1126,image-keyboard-response,48
true,6,1,4,1,true,z,false,true,0.0-2.0-0.36-0.331-3.331,1,0,1,90,false,stim,false,1,566,1,0,0,78689,WMM2,995234,false,false,1129,image-keyboard-response,49
true,7,0,1,0,true,q,false,true,0.0-2.0-0.36-0.332-3.332,0,0,1,81,true,stim,false,0,1093,1,1,2,78689,WMM2,997856,false,false,1132,image-keyboard-response,1
true,7,0,1,2,false,d,false,false,0.0-2.0-0.37-0.333-3.333,0,0,1,81,false,stim,true,0,824,1,0,1,78689,WMM2,1000208,false,false,1135,image-keyboard-response,2
true,7,1,1,2,false,d,false,false,0.0-2.0-0.37-0.334-3.334,0,0,1,90,false,stim,true,1,677,1,0,0,78689,WMM2,1002410,false,false,1138,image-keyboard-response,3
true,7,0,1,0,true,q,false,true,0.0-2.0-0.37-0.335-3.335,0,0,1,81,false,stim,false,0,1110,1,1,2,78689,WMM2,1005049,false,false,1141,image-keyboard-response,4
true,7,2,1,2,true,d,false,true,0.0-2.0-0.37-0.336-3.336,0,0,1,68,false,stim,false,1,673,1,0,0,78689,WMM2,1007253,false,false,1144,image-keyboard-response,5
true,7,1,1,2,false,d,true,false,0.0-2.0-0.37-0.337-3.337,0,0,1,90,false,stim,false,0,1337,1,0,1,78689,WMM2,1010115,false,false,1147,image-keyboard-response,6
true,7,0,1,0,true,q,false,true,0.0-2.0-0.37-0.338-3.338,0,0,1,81,false,stim,false,0,834,1,1,2,78689,WMM2,1012469,false,false,1150,image-keyboard-response,7
true,7,0,1,0,true,q,false,true,0.0-2.0-0.37-0.339-3.339,0,0,1,81,false,stim,false,0,715,1,1,2,78689,WMM2,1014703,false,false,1153,image-keyboard-response,8
true,7,0,1,2,false,d,true,false,0.0-2.0-0.37-0.340-3.340,0,0,1,81,false,stim,false,1,1135,1,0,0,78689,WMM2,1017368,false,false,1156,image-keyboard-response,9
true,7,2,1,2,true,d,false,false,0.0-2.0-0.37-0.341-3.341,0,0,1,68,false,stim,false,0,1308,1,0,1,78689,WMM2,1020202,false,true,1159,image-keyboard-response,10
true,7,0,1,0,true,q,false,true,0.0-2.0-0.38-0.342-3.342,0,0,1,81,false,stim,false,0,871,1,1,2,78689,WMM2,1022595,false,false,1162,image-keyboard-response,11
true,7,2,1,2,true,d,false,true,0.0-2.0-0.38-0.343-3.343,0,0,1,68,false,stim,false,1,726,1,0,0,78689,WMM2,1024855,false,false,1165,image-keyboard-response,12
true,7,2,1,2,true,d,false,true,0.0-2.0-0.38-0.344-3.344,0,0,1,68,false,stim,false,1,1339,1,0,0,78689,WMM2,1027722,false,false,1168,image-keyboard-response,13
true,7,0,1,0,true,q,false,true,0.0-2.0-0.38-0.345-3.345,0,0,1,81,false,stim,false,0,946,1,1,2,78689,WMM2,1030177,false,false,1171,image-keyboard-response,14
true,7,1,1,2,false,d,true,false,0.0-2.0-0.38-0.346-3.346,0,0,1,90,false,stim,false,0,1082,1,0,1,78689,WMM2,1032784,false,false,1174,image-keyboard-response,15
true,7,0,1,2,false,d,false,false,0.0-2.0-0.38-0.347-3.347,0,0,1,81,false,stim,true,0,702,1,0,1,78689,WMM2,1035005,false,false,1177,image-keyboard-response,16
true,7,0,1,0,true,q,false,true,0.0-2.0-0.38-0.348-3.348,0,0,1,81,false,stim,false,0,1700,1,1,2,78689,WMM2,1038224,false,false,1180,image-keyboard-response,17
true,7,2,1,2,true,d,false,true,0.0-2.0-0.38-0.349-3.349,0,0,1,68,false,stim,false,0,1068,1,0,1,78689,WMM2,1040825,false,false,1183,image-keyboard-response,18
true,7,0,1,2,false,d,true,false,0.0-2.0-0.38-0.350-3.350,0,0,1,81,false,stim,false,1,856,1,0,0,78689,WMM2,1043204,false,false,1186,image-keyboard-response,19
true,7,2,1,2,true,d,false,true,0.0-2.0-0.39-0.351-3.351,0,0,1,68,false,stim,false,0,1528,1,0,1,78689,WMM2,1046262,false,false,1189,image-keyboard-response,20
true,7,2,1,2,true,d,false,true,0.0-2.0-0.39-0.352-3.352,0,0,1,68,false,stim,false,1,903,1,0,0,78689,WMM2,1048692,false,false,1192,image-keyboard-response,21
true,7,2,1,2,true,d,false,true,0.0-2.0-0.39-0.353-3.353,0,0,1,68,false,stim,false,1,543,1,0,0,78689,WMM2,1050761,false,false,1195,image-keyboard-response,22
true,7,0,1,0,true,q,false,true,0.0-2.0-0.39-0.354-3.354,0,0,1,81,false,stim,false,0,894,1,1,2,78689,WMM2,1053186,false,false,1198,image-keyboard-response,23
true,7,2,1,2,true,d,false,true,0.0-2.0-0.39-0.355-3.355,0,0,1,68,false,stim,false,1,754,1,0,0,78689,WMM2,1055473,false,false,1201,image-keyboard-response,24
true,7,2,1,0,false,q,true,true,0.0-2.0-0.39-0.356-3.356,0,0,1,68,false,stim,false,0,842,1,1,2,78689,WMM2,1057843,false,true,1204,image-keyboard-response,25
true,7,2,1,2,true,d,false,true,0.0-2.0-0.39-0.357-3.357,0,0,1,68,false,stim,false,0,817,1,1,1,78689,WMM2,1060180,false,false,1207,image-keyboard-response,26
true,7,0,1,0,true,q,false,true,0.0-2.0-0.39-0.358-3.358,0,0,1,81,false,stim,false,0,482,1,1,2,78689,WMM2,1062186,false,false,1210,image-keyboard-response,27
true,7,2,1,2,true,d,false,true,0.0-2.0-0.39-0.359-3.359,0,0,1,68,false,stim,false,0,558,1,1,1,78689,WMM2,1064266,false,false,1213,image-keyboard-response,28
true,7,2,1,2,true,d,false,true,0.0-2.0-0.40-0.360-3.360,0,0,1,68,false,stim,false,0,1248,1,1,1,78689,WMM2,1067031,false,false,1216,image-keyboard-response,29
true,7,0,1,0,true,q,false,true,0.0-2.0-0.40-0.361-3.361,0,0,1,81,false,stim,false,0,1117,1,1,2,78689,WMM2,1069677,false,false,1219,image-keyboard-response,30
true,7,2,1,2,true,d,false,true,0.0-2.0-0.40-0.362-3.362,0,0,1,68,false,stim,false,0,1253,1,1,1,78689,WMM2,1072447,false,false,1222,image-keyboard-response,31
true,7,0,1,2,false,d,true,false,0.0-2.0-0.40-0.363-3.363,0,0,1,81,false,stim,false,1,764,1,0,0,78689,WMM2,1074724,false,false,1225,image-keyboard-response,32
true,8,2,2,0,false,q,false,false,0.0-2.0-0.40-0.364-3.364,0,1,1,68,true,stim,true,2,1345,1,0,0,78689,WMM2,1077585,false,false,1228,image-keyboard-response,1
true,8,0,2,0,true,q,false,true,0.0-2.0-0.40-0.365-3.365,0,1,1,81,false,stim,false,0,1264,1,1,2,78689,WMM2,1080367,false,false,1231,image-keyboard-response,2
true,8,2,2,0,false,q,false,false,0.0-2.0-0.40-0.366-3.366,0,1,1,68,false,stim,true,2,634,1,0,0,78689,WMM2,1082534,false,false,1234,image-keyboard-response,3
true,8,0,2,0,true,q,false,true,0.0-2.0-0.40-0.367-3.367,0,1,1,81,false,stim,false,0,565,1,1,2,78689,WMM2,1084621,false,false,1237,image-keyboard-response,4
true,8,2,2,2,true,d,false,true,0.0-2.0-0.40-0.368-3.368,0,1,1,68,false,stim,false,2,1187,1,1,1,78689,WMM2,1087318,false,false,1240,image-keyboard-response,5
true,8,2,2,2,true,d,false,true,0.0-2.0-0.41-0.369-3.369,0,1,1,68,false,stim,false,2,470,1,1,1,78689,WMM2,1089299,false,false,1243,image-keyboard-response,6
true,8,1,2,0,false,q,true,false,0.0-2.0-0.41-0.370-3.370,0,1,1,90,false,stim,false,0,862,1,1,2,78689,WMM2,1091684,false,false,1246,image-keyboard-response,7
true,8,2,2,0,false,q,false,false,0.0-2.0-0.41-0.371-3.371,0,1,1,68,false,stim,true,2,1349,1,0,0,78689,WMM2,1094563,false,false,1249,image-keyboard-response,8
true,8,0,2,0,true,q,false,true,0.0-2.0-0.41-0.372-3.372,0,1,1,81,false,stim,false,0,1116,1,1,2,78689,WMM2,1097208,false,false,1252,image-keyboard-response,9
true,8,0,2,2,false,d,true,false,0.0-2.0-0.41-0.373-3.373,0,1,1,81,false,stim,false,2,1334,1,1,1,78689,WMM2,1100060,false,false,1255,image-keyboard-response,10
true,8,1,2,0,false,q,true,false,0.0-2.0-0.41-0.374-3.374,0,1,1,90,false,stim,false,2,1726,1,0,0,78689,WMM2,1103303,false,false,1258,image-keyboard-response,11
true,8,0,2,0,true,q,false,false,0.0-2.0-0.41-0.375-3.375,0,1,1,81,false,stim,false,0,675,1,1,2,78689,WMM2,1105503,false,true,1261,image-keyboard-response,12
true,8,2,2,2,true,d,false,true,0.0-2.0-0.41-0.376-3.376,0,1,1,68,false,stim,false,2,787,1,1,1,78689,WMM2,1107806,false,false,1264,image-keyboard-response,13
true,8,2,2,0,false,q,false,false,0.0-2.0-0.41-0.377-3.377,0,1,1,68,false,stim,true,2,958,1,0,0,78689,WMM2,1110293,false,false,1267,image-keyboard-response,14
true,8,2,2,2,true,d,false,true,0.0-2.0-0.42-0.378-3.378,0,1,1,68,false,stim,false,2,1048,1,1,1,78689,WMM2,1112866,false,false,1270,image-keyboard-response,15
true,8,2,2,0,false,q,true,false,0.0-2.0-0.42-0.379-3.379,0,1,1,68,false,stim,false,0,893,1,1,2,78689,WMM2,1115283,false,false,1273,image-keyboard-response,16
true,8,0,2,2,false,d,true,true,0.0-2.0-0.42-0.380-3.380,0,1,1,81,false,stim,false,2,443,1,1,1,78689,WMM2,1117241,false,true,1276,image-keyboard-response,17
true,8,2,2,0,false,q,false,false,0.0-2.0-0.42-0.381-3.381,0,1,1,68,false,stim,true,2,2745,1,0,0,78689,WMM2,1121507,false,false,1279,image-keyboard-response,18
true,8,1,2,0,false,q,true,false,0.0-2.0-0.42-0.382-3.382,0,1,1,90,false,stim,false,2,1039,1,0,0,78689,WMM2,1124068,false,false,1282,image-keyboard-response,19
true,8,0,2,0,true,q,false,true,0.0-2.0-0.42-0.383-3.383,0,1,1,81,false,stim,false,0,724,1,1,2,78689,WMM2,1126316,false,false,1285,image-keyboard-response,20
true,8,0,2,0,true,q,false,true,0.0-2.0-0.42-0.384-3.384,0,1,1,81,false,stim,false,0,2324,1,1,2,78689,WMM2,1130149,false,false,1288,image-keyboard-response,21
true,8,2,2,0,false,q,false,false,0.0-2.0-0.42-0.385-3.385,0,1,1,68,false,stim,true,2,2181,1,0,0,78689,WMM2,1133858,false,false,1291,image-keyboard-response,22
true,8,1,2,2,false,d,true,false,0.0-2.0-0.42-0.386-3.386,0,1,1,90,false,stim,false,2,1826,1,1,1,78689,WMM2,1137211,false,false,1294,image-keyboard-response,23
true,8,0,2,0,true,q,false,true,0.0-2.0-0.43-0.387-3.387,0,1,1,81,false,stim,false,0,671,1,1,2,78689,WMM2,1139401,false,false,1297,image-keyboard-response,24
true,8,2,2,0,false,q,false,false,0.0-2.0-0.43-0.388-3.388,0,1,1,68,false,stim,true,2,859,1,0,0,78689,WMM2,1141778,false,false,1300,image-keyboard-response,25
true,8,1,2,2,false,d,true,false,0.0-2.0-0.43-0.389-3.389,0,1,1,90,false,stim,false,2,874,1,1,1,78689,WMM2,1144228,false,false,1303,image-keyboard-response,26
true,8,0,2,0,true,q,false,true,0.0-2.0-0.43-0.390-3.390,0,1,1,81,false,stim,false,2,553,1,0,0,78689,WMM2,1146297,false,false,1306,image-keyboard-response,27
true,8,2,2,0,false,q,true,false,0.0-2.0-0.43-0.391-3.391,0,1,1,68,false,stim,false,0,1202,1,1,2,78689,WMM2,1149010,false,false,1309,image-keyboard-response,28
true,8,0,2,0,true,q,false,true,0.0-2.0-0.43-0.392-3.392,0,1,1,81,false,stim,false,0,674,1,1,2,78689,WMM2,1151216,false,false,1312,image-keyboard-response,29
true,8,0,2,2,false,d,true,false,0.0-2.0-0.43-0.393-3.393,0,1,1,81,false,stim,false,2,797,1,1,1,78689,WMM2,1153536,false,false,1315,image-keyboard-response,30
true,8,1,2,0,false,q,true,false,0.0-2.0-0.43-0.394-3.394,0,1,1,90,false,stim,false,2,753,1,0,0,78689,WMM2,1155812,false,false,1318,image-keyboard-response,31
true,8,0,2,2,false,d,true,false,0.0-2.0-0.43-0.395-3.395,0,1,1,81,false,stim,false,2,543,1,1,1,78689,WMM2,1157893,false,false,1321,image-keyboard-response,32
true,8,2,2,2,true,d,false,true,0.0-2.0-0.44-0.396-3.396,0,1,1,68,false,stim,false,2,446,1,1,1,78689,WMM2,1159867,false,false,1324,image-keyboard-response,33
true,8,1,2,0,false,q,true,true,0.0-2.0-0.44-0.397-3.397,0,1,1,90,false,stim,false,0,817,1,1,2,78689,WMM2,1162219,false,true,1327,image-keyboard-response,34
true,8,0,2,0,true,q,false,true,0.0-2.0-0.44-0.398-3.398,0,1,1,81,false,stim,false,2,708,1,0,0,78689,WMM2,1164441,false,false,1330,image-keyboard-response,35
true,8,0,2,2,false,d,true,false,0.0-2.0-0.44-0.399-3.399,0,1,1,81,false,stim,false,2,663,1,1,1,78689,WMM2,1166627,false,false,1333,image-keyboard-response,36
true,8,2,2,0,false,q,false,false,0.0-2.0-0.44-0.400-3.400,0,1,1,68,false,stim,true,2,702,1,0,0,78689,WMM2,1168847,false,false,1336,image-keyboard-response,37
true,8,1,2,0,false,q,true,true,0.0-2.0-0.44-0.401-3.401,0,1,1,90,false,stim,false,0,638,1,1,2,78689,WMM2,1171021,false,true,1339,image-keyboard-response,38
true,8,0,2,2,false,d,true,false,0.0-2.0-0.44-0.402-3.402,0,1,1,81,false,stim,false,2,1173,1,1,1,78689,WMM2,1173722,false,false,1342,image-keyboard-response,39
true,8,1,2,0,false,q,true,false,0.0-2.0-0.44-0.403-3.403,0,1,1,90,false,stim,false,0,1049,1,1,2,78689,WMM2,1176284,false,false,1345,image-keyboard-response,40
true,8,0,2,0,true,q,false,true,0.0-2.0-0.44-0.404-3.404,0,1,1,81,false,stim,false,2,1436,1,0,0,78689,WMM2,1179238,false,false,1348,image-keyboard-response,41
true,8,0,2,2,false,d,true,false,0.0-2.0-0.45-0.405-3.405,0,1,1,81,false,stim,false,2,1476,1,1,1,78689,WMM2,1182253,false,false,1351,image-keyboard-response,42
true,8,0,2,0,true,q,false,true,0.0-2.0-0.45-0.406-3.406,0,1,1,81,false,stim,false,2,559,1,0,0,78689,WMM2,1184338,false,false,1354,image-keyboard-response,43
true,8,0,2,0,true,q,false,true,0.0-2.0-0.45-0.407-3.407,0,1,1,81,false,stim,false,2,436,1,0,0,78689,WMM2,1186287,false,false,1357,image-keyboard-response,44
true,8,2,2,2,true,d,false,false,0.0-2.0-0.45-0.408-3.408,0,1,1,68,false,stim,false,2,1247,1,1,1,78689,WMM2,1189062,false,true,1360,image-keyboard-response,45
true,8,0,2,0,true,q,false,false,0.0-2.0-0.45-0.409-3.409,0,1,1,81,false,stim,false,2,624,1,0,0,78689,WMM2,1191208,false,true,1363,image-keyboard-response,46
true,8,1,2,0,false,q,true,false,0.0-2.0-0.45-0.410-3.410,0,1,1,90,false,stim,false,0,632,1,1,2,78689,WMM2,1193361,false,false,1366,image-keyboard-response,47
true,8,0,2,0,true,q,false,true,0.0-2.0-0.45-0.411-3.411,0,1,1,81,false,stim,false,0,474,1,1,2,78689,WMM2,1195375,false,false,1369,image-keyboard-response,48
true,8,2,2,2,true,d,false,true,0.0-2.0-0.45-0.412-3.412,0,1,1,68,false,stim,false,2,1483,1,1,1,78689,WMM2,1198397,false,false,1372,image-keyboard-response,49
true,8,0,2,0,true,q,false,true,0.0-2.0-0.45-0.413-3.413,0,1,1,81,false,stim,false,0,958,1,1,2,78689,WMM2,1200887,false,false,1375,image-keyboard-response,50
true,8,2,2,2,true,d,false,true,0.0-2.0-0.46-0.414-3.414,0,1,1,68,false,stim,false,2,2015,1,0,1,78689,WMM2,1204430,false,false,1378,image-keyboard-response,51
true,8,0,2,0,true,q,false,true,0.0-2.0-0.46-0.415-3.415,0,1,1,81,false,stim,false,2,1603,1,1,0,78689,WMM2,1207560,false,false,1381,image-keyboard-response,52
true,8,2,2,2,true,d,false,false,0.0-2.0-0.46-0.416-3.416,0,1,1,68,false,stim,false,2,992,1,0,1,78689,WMM2,1210081,false,true,1384,image-keyboard-response,53
true,8,0,2,0,true,q,false,true,0.0-2.0-0.46-0.417-3.417,0,1,1,81,false,stim,false,0,489,1,0,2,78689,WMM2,1212092,false,false,1387,image-keyboard-response,54
true,8,0,2,0,true,q,false,true,0.0-2.0-0.46-0.418-3.418,0,1,1,81,false,stim,false,2,641,1,1,0,78689,WMM2,1214251,false,false,1390,image-keyboard-response,55
true,8,0,2,0,true,q,false,true,0.0-2.0-0.46-0.419-3.419,0,1,1,81,false,stim,false,0,546,1,0,2,78689,WMM2,1216315,false,false,1393,image-keyboard-response,56
true,8,0,2,0,true,q,false,true,0.0-2.0-0.46-0.420-3.420,0,1,1,81,false,stim,false,2,577,1,1,0,78689,WMM2,1218426,false,false,1396,image-keyboard-response,57
true,8,0,2,0,true,q,false,true,0.0-2.0-0.46-0.421-3.421,0,1,1,81,false,stim,false,0,483,1,0,2,78689,WMM2,1220422,false,false,1399,image-keyboard-response,58
true,8,2,2,2,true,d,false,true,0.0-2.0-0.46-0.422-3.422,0,1,1,68,false,stim,false,2,665,1,0,1,78689,WMM2,1222653,false,false,1402,image-keyboard-response,59
true,8,0,2,0,true,q,false,true,0.0-2.0-0.47-0.423-3.423,0,1,1,81,false,stim,false,0,493,1,0,2,78689,WMM2,1224670,false,false,1405,image-keyboard-response,60
true,9,0,1,0,true,q,false,true,0.0-2.0-0.47-0.424-3.424,1,0,0,81,true,stim,false,0,1289,1,1,0,78689,WMM2,1227488,false,false,1408,image-keyboard-response,1
true,9,2,1,2,true,d,false,true,0.0-2.0-0.47-0.425-3.425,1,0,0,68,false,stim,false,0,1771,1,0,2,78689,WMM2,1230786,false,false,1411,image-keyboard-response,2
true,9,0,1,1,false,z,true,false,0.0-2.0-0.47-0.426-3.426,1,0,0,81,false,stim,false,2,1954,1,0,1,78689,WMM2,1234261,false,false,1414,image-keyboard-response,3
true,9,2,1,1,false,z,false,false,0.0-2.0-0.47-0.427-3.427,1,0,0,68,false,stim,true,2,453,1,0,1,78689,WMM2,1236246,false,false,1417,image-keyboard-response,4
true,9,0,1,2,false,d,false,false,0.0-2.0-0.47-0.428-3.428,1,0,0,81,false,stim,true,0,716,1,0,2,78689,WMM2,1238492,false,false,1420,image-keyboard-response,5
true,9,2,1,1,false,z,false,false,0.0-2.0-0.47-0.429-3.429,1,0,0,68,false,stim,true,2,1169,1,0,1,78689,WMM2,1241197,false,false,1423,image-keyboard-response,6
true,9,0,1,0,true,q,false,true,0.0-2.0-0.47-0.430-3.430,1,0,0,81,false,stim,false,0,1405,1,1,0,78689,WMM2,1244136,false,false,1426,image-keyboard-response,7
true,9,0,1,0,true,q,false,true,0.0-2.0-0.47-0.431-3.431,1,0,0,81,false,stim,false,0,575,1,1,0,78689,WMM2,1246234,false,false,1429,image-keyboard-response,8
true,9,1,1,1,true,z,false,true,0.0-2.0-0.48-0.432-3.432,1,0,0,90,false,stim,false,2,1319,1,0,1,78689,WMM2,1249082,false,false,1432,image-keyboard-response,9
true,9,1,1,2,false,d,true,false,0.0-2.0-0.48-0.433-3.433,1,0,0,90,false,stim,false,0,730,1,0,2,78689,WMM2,1251340,false,false,1435,image-keyboard-response,10
true,9,0,1,0,true,q,false,true,0.0-2.0-0.48-0.434-3.434,1,0,0,81,false,stim,false,0,562,1,1,0,78689,WMM2,1253426,false,false,1438,image-keyboard-response,11
true,9,0,1,0,true,q,false,true,0.0-2.0-0.48-0.435-3.435,1,0,0,81,false,stim,false,0,997,1,1,0,78689,WMM2,1255950,false,false,1441,image-keyboard-response,12
true,9,0,1,0,true,q,false,true,0.0-2.0-0.48-0.436-3.436,1,0,0,81,false,stim,false,0,792,1,1,0,78689,WMM2,1258270,false,false,1444,image-keyboard-response,13
true,9,0,1,1,false,z,true,false,0.0-2.0-0.48-0.437-3.437,1,0,0,81,false,stim,false,2,1616,1,0,1,78689,WMM2,1261425,false,false,1447,image-keyboard-response,14
true,9,2,1,2,true,d,false,true,0.0-2.0-0.48-0.438-3.438,1,0,0,68,false,stim,false,0,947,1,0,2,78689,WMM2,1263904,false,false,1450,image-keyboard-response,15
true,9,2,1,2,true,d,false,true,0.0-2.0-0.48-0.439-3.439,1,0,0,68,false,stim,false,0,565,1,0,2,78689,WMM2,1266009,false,false,1453,image-keyboard-response,16
true,9,1,1,1,true,z,false,true,0.0-2.0-0.48-0.440-3.440,1,0,0,90,false,stim,false,2,1016,1,0,1,78689,WMM2,1268560,false,false,1456,image-keyboard-response,17
true,9,2,1,2,true,d,false,true,0.0-2.0-0.49-0.441-3.441,1,0,0,68,false,stim,false,0,626,1,0,2,78689,WMM2,1270704,false,false,1459,image-keyboard-response,18
true,9,0,1,0,true,q,false,true,0.0-2.0-0.49-0.442-3.442,1,0,0,81,false,stim,false,0,646,1,1,0,78689,WMM2,1272870,false,false,1462,image-keyboard-response,19
true,9,1,1,1,true,z,false,true,0.0-2.0-0.49-0.443-3.443,1,0,0,90,false,stim,false,2,716,1,0,1,78689,WMM2,1275110,false,false,1465,image-keyboard-response,20
true,9,0,1,0,true,q,false,false,0.0-2.0-0.49-0.444-3.444,1,0,0,81,false,stim,false,0,736,1,1,0,78689,WMM2,1277384,false,true,1468,image-keyboard-response,21
true,9,2,1,2,true,d,false,true,0.0-2.0-0.49-0.445-3.445,1,0,0,68,false,stim,false,0,875,1,0,2,78689,WMM2,1279779,false,false,1471,image-keyboard-response,22
true,9,0,1,0,true,q,false,true,0.0-2.0-0.49-0.446-3.446,1,0,0,81,false,stim,false,0,847,1,1,0,78689,WMM2,1282161,false,false,1474,image-keyboard-response,23
true,9,1,1,1,true,z,false,true,0.0-2.0-0.49-0.447-3.447,1,0,0,90,false,stim,false,2,1168,1,1,1,78689,WMM2,1284855,false,false,1477,image-keyboard-response,24
true,9,2,1,2,true,d,false,true,0.0-2.0-0.49-0.448-3.448,1,0,0,68,false,stim,false,0,731,1,0,2,78689,WMM2,1287121,false,false,1480,image-keyboard-response,25
true,9,1,1,1,true,z,false,true,0.0-2.0-0.49-0.449-3.449,1,0,0,90,false,stim,false,2,1152,1,1,1,78689,WMM2,1289800,false,false,1483,image-keyboard-response,26
true,9,0,1,2,false,d,false,false,0.0-2.0-0.50-0.450-3.450,1,0,0,81,false,stim,true,0,1298,1,0,2,78689,WMM2,1292617,false,false,1486,image-keyboard-response,27
true,9,1,1,1,true,z,false,true,0.0-2.0-0.50-0.451-3.451,1,0,0,90,false,stim,false,2,787,1,1,1,78689,WMM2,1294932,false,false,1489,image-keyboard-response,28
true,9,1,1,1,true,z,false,true,0.0-2.0-0.50-0.452-3.452,1,0,0,90,false,stim,false,2,1140,1,1,1,78689,WMM2,1297609,false,false,1492,image-keyboard-response,29
true,9,2,1,2,true,d,false,true,0.0-2.0-0.50-0.453-3.453,1,0,0,68,false,stim,false,0,1401,1,0,2,78689,WMM2,1300545,false,false,1495,image-keyboard-response,30
true,10,2,2,1,false,z,false,false,0.0-2.0-0.50-0.454-3.454,1,1,0,68,true,stim,true,2,541,1,0,2,78689,WMM2,1302610,false,false,1498,image-keyboard-response,1
true,10,0,2,0,true,q,false,true,0.0-2.0-0.50-0.455-3.455,1,1,0,81,false,stim,false,0,1053,1,1,0,78689,WMM2,1305226,false,false,1501,image-keyboard-response,2
true,10,1,2,0,false,q,true,true,0.0-2.0-0.50-0.456-3.456,1,1,0,90,false,stim,false,0,879,1,1,0,78689,WMM2,1307633,false,true,1504,image-keyboard-response,3
true,10,0,2,0,true,q,false,true,0.0-2.0-0.50-0.457-3.457,1,1,0,81,false,stim,false,0,1150,1,1,0,78689,WMM2,1310311,false,false,1507,image-keyboard-response,4
true,10,1,2,1,true,z,false,false,0.0-2.0-0.50-0.458-3.458,1,1,0,90,false,stim,false,1,1907,1,1,1,78689,WMM2,1313748,false,true,1510,image-keyboard-response,5
true,10,2,2,1,false,z,false,false,0.0-2.0-0.51-0.459-3.459,1,1,0,68,false,stim,true,2,474,1,0,2,78689,WMM2,1315747,false,false,1513,image-keyboard-response,6
true,10,1,2,1,true,z,false,false,0.0-2.0-0.51-0.460-3.460,1,1,0,90,false,stim,false,1,1471,1,1,1,78689,WMM2,1318745,false,true,1516,image-keyboard-response,7
true,10,0,2,0,true,q,false,false,0.0-2.0-0.51-0.461-3.461,1,1,0,81,false,stim,false,0,620,1,1,0,78689,WMM2,1320894,false,true,1519,image-keyboard-response,8
true,10,2,2,1,false,z,false,false,0.0-2.0-0.51-0.462-3.462,1,1,0,68,false,stim,true,2,956,1,0,2,78689,WMM2,1323386,false,false,1522,image-keyboard-response,9
true,10,1,2,1,true,z,false,false,0.0-2.0-0.51-0.463-3.463,1,1,0,90,false,stim,false,1,1333,1,1,1,78689,WMM2,1326242,false,true,1525,image-keyboard-response,10
true,10,0,2,1,false,z,true,false,0.0-2.0-0.51-0.464-3.464,1,1,0,81,false,stim,false,2,522,1,0,2,78689,WMM2,1328294,false,false,1528,image-keyboard-response,11
true,10,1,2,0,false,q,true,true,0.0-2.0-0.51-0.465-3.465,1,1,0,90,false,stim,false,0,799,1,1,0,78689,WMM2,1330610,false,true,1531,image-keyboard-response,12
true,10,1,2,0,false,q,true,false,0.0-2.0-0.51-0.466-3.466,1,1,0,90,false,stim,false,0,530,1,1,0,78689,WMM2,1332685,false,false,1534,image-keyboard-response,13
true,10,0,2,1,false,z,true,false,0.0-2.0-0.51-0.467-3.467,1,1,0,81,false,stim,false,1,1057,1,1,1,78689,WMM2,1335266,false,false,1537,image-keyboard-response,14
true,10,1,2,1,true,z,false,true,0.0-2.0-0.52-0.468-3.468,1,1,0,90,false,stim,false,2,800,1,0,2,78689,WMM2,1337604,false,false,1540,image-keyboard-response,15
true,10,1,2,1,true,z,false,true,0.0-2.0-0.52-0.469-3.469,1,1,0,90,false,stim,false,2,847,1,0,2,78689,WMM2,1339972,false,false,1543,image-keyboard-response,16
true,10,1,2,1,true,z,false,true,0.0-2.0-0.52-0.470-3.470,1,1,0,90,false,stim,false,2,651,1,0,2,78689,WMM2,1342144,false,false,1546,image-keyboard-response,17
true,10,0,2,1,false,z,true,false,0.0-2.0-0.52-0.471-3.471,1,1,0,81,false,stim,false,1,1064,1,1,1,78689,WMM2,1344727,false,false,1549,image-keyboard-response,18
true,10,2,2,0,false,q,true,false,0.0-2.0-0.52-0.472-3.472,1,1,0,68,false,stim,false,0,668,1,1,0,78689,WMM2,1346922,false,false,1552,image-keyboard-response,19
true,10,1,2,0,false,q,true,false,0.0-2.0-0.52-0.473-3.473,1,1,0,90,false,stim,false,0,489,1,1,0,78689,WMM2,1348948,false,false,1555,image-keyboard-response,20
true,10,0,2,0,true,q,false,true,0.0-2.0-0.52-0.474-3.474,1,1,0,81,false,stim,false,0,425,1,1,0,78689,WMM2,1350914,false,false,1558,image-keyboard-response,21
true,10,0,2,1,false,z,true,false,0.0-2.0-0.52-0.475-3.475,1,1,0,81,false,stim,false,1,496,1,1,1,78689,WMM2,1352942,false,false,1561,image-keyboard-response,22
true,10,1,2,1,true,z,false,true,0.0-2.0-0.52-0.476-3.476,1,1,0,90,false,stim,false,1,756,1,1,1,78689,WMM2,1355249,false,false,1564,image-keyboard-response,23
true,10,2,2,0,false,q,true,false,0.0-2.0-0.53-0.477-3.477,1,1,0,68,false,stim,false,0,928,1,1,0,78689,WMM2,1357718,false,false,1567,image-keyboard-response,24
true,10,0,2,0,true,q,false,true,0.0-2.0-0.53-0.478-3.478,1,1,0,81,false,stim,false,0,795,1,1,0,78689,WMM2,1360055,false,false,1570,image-keyboard-response,25
true,10,1,2,1,true,z,false,true,0.0-2.0-0.53-0.479-3.479,1,1,0,90,false,stim,false,1,951,1,1,1,78689,WMM2,1362548,false,false,1573,image-keyboard-response,26
true,10,0,2,1,false,z,true,false,0.0-2.0-0.53-0.480-3.480,1,1,0,81,false,stim,false,2,415,1,0,2,78689,WMM2,1364515,false,false,1576,image-keyboard-response,27
true,10,2,2,0,false,q,true,false,0.0-2.0-0.53-0.481-3.481,1,1,0,68,false,stim,false,0,954,1,1,0,78689,WMM2,1367006,false,false,1579,image-keyboard-response,28
true,10,1,2,1,true,z,false,true,0.0-2.0-0.53-0.482-3.482,1,1,0,90,false,stim,false,1,714,1,1,1,78689,WMM2,1369257,false,false,1582,image-keyboard-response,29
true,10,0,2,1,false,z,true,false,0.0-2.0-0.53-0.483-3.483,1,1,0,81,false,stim,false,2,2905,1,0,2,78689,WMM2,1373701,false,false,1585,image-keyboard-response,30
true,10,1,2,1,true,z,false,true,0.0-2.0-0.53-0.484-3.484,1,1,0,90,false,stim,false,1,1559,1,1,1,78689,WMM2,1376797,false,false,1588,image-keyboard-response,31
true,10,2,2,1,false,z,false,true,0.0-2.0-0.53-0.485-3.485,1,1,0,68,false,stim,true,2,1527,1,0,2,78689,WMM2,1379860,false,true,1591,image-keyboard-response,32
true,10,2,2,1,false,z,true,false,0.0-2.0-0.54-0.486-3.486,1,1,0,68,false,stim,false,1,1578,1,1,1,78689,WMM2,1382978,false,false,1594,image-keyboard-response,33
true,10,1,2,1,true,z,false,true,0.0-2.0-0.54-0.487-3.487,1,1,0,90,false,stim,false,1,800,1,1,1,78689,WMM2,1385314,false,false,1597,image-keyboard-response,34
true,10,0,2,0,true,q,false,true,0.0-2.0-0.54-0.488-3.488,1,1,0,81,false,stim,false,0,1083,1,1,0,78689,WMM2,1387928,false,false,1600,image-keyboard-response,35
true,10,1,2,1,true,z,false,true,0.0-2.0-0.54-0.489-3.489,1,1,0,90,false,stim,false,2,1149,1,0,2,78689,WMM2,1390663,false,false,1603,image-keyboard-response,36
true,10,1,2,1,true,z,false,true,0.0-2.0-0.54-0.490-3.490,1,1,0,90,false,stim,false,2,493,1,0,2,78689,WMM2,1392692,false,false,1606,image-keyboard-response,37
true,10,1,2,1,true,z,false,true,0.0-2.0-0.54-0.491-3.491,1,1,0,90,false,stim,false,2,539,1,0,2,78689,WMM2,1394769,false,false,1609,image-keyboard-response,38
true,10,0,2,0,true,q,false,false,0.0-2.0-0.54-0.492-3.492,1,1,0,81,false,stim,false,0,633,1,1,0,78689,WMM2,1396938,false,true,1612,image-keyboard-response,39
true,10,2,2,0,false,q,true,false,0.0-2.0-0.54-0.493-3.493,1,1,0,68,false,stim,false,0,757,1,1,0,78689,WMM2,1399247,false,false,1615,image-keyboard-response,40
true,10,2,2,1,false,z,true,false,0.0-2.0-0.54-0.494-3.494,1,1,0,68,false,stim,false,1,775,1,1,1,78689,WMM2,1401563,false,false,1618,image-keyboard-response,41
true,10,1,2,0,false,q,true,false,0.0-2.0-0.55-0.495-3.495,1,1,0,90,false,stim,false,0,855,1,1,0,78689,WMM2,1403956,false,false,1621,image-keyboard-response,42
true,10,0,2,1,false,z,true,false,0.0-2.0-0.55-0.496-3.496,1,1,0,81,false,stim,false,1,763,1,1,1,78689,WMM2,1406251,false,false,1624,image-keyboard-response,43
true,10,1,2,1,true,z,false,true,0.0-2.0-0.55-0.497-3.497,1,1,0,90,false,stim,false,1,593,1,1,1,78689,WMM2,1408387,false,false,1627,image-keyboard-response,44
true,10,0,2,1,false,z,true,false,0.0-2.0-0.55-0.498-3.498,1,1,0,81,false,stim,false,2,868,1,0,2,78689,WMM2,1410799,false,false,1630,image-keyboard-response,45
true,10,1,2,1,true,z,false,true,0.0-2.0-0.55-0.499-3.499,1,1,0,90,false,stim,false,2,847,1,0,2,78689,WMM2,1413190,false,false,1633,image-keyboard-response,46
true,10,1,2,0,false,q,true,false,0.0-2.0-0.55-0.500-3.500,1,1,0,90,false,stim,false,0,553,1,1,0,78689,WMM2,1415273,false,false,1636,image-keyboard-response,47
true,10,1,2,1,true,z,false,true,0.0-2.0-0.55-0.501-3.501,1,1,0,90,false,stim,false,2,590,1,0,2,78689,WMM2,1417394,false,false,1639,image-keyboard-response,48
true,10,2,2,0,false,q,true,false,0.0-2.0-0.55-0.502-3.502,1,1,0,68,false,stim,false,0,827,1,1,0,78689,WMM2,1419763,false,false,1642,image-keyboard-response,49
true,10,1,2,1,true,z,false,true,0.0-2.0-0.55-0.503-3.503,1,1,0,90,false,stim,false,1,628,1,1,1,78689,WMM2,1421925,false,false,1645,image-keyboard-response,50
true,10,1,2,1,true,z,false,true,0.0-2.0-0.56-0.504-3.504,1,1,0,90,false,stim,false,1,451,1,1,1,78689,WMM2,1423923,false,false,1648,image-keyboard-response,51
true,10,0,2,1,false,z,true,true,0.0-2.0-0.56-0.505-3.505,1,1,0,81,false,stim,false,2,686,1,1,2,78689,WMM2,1426138,false,true,1651,image-keyboard-response,52
true,10,0,2,1,false,z,true,true,0.0-2.0-0.56-0.506-3.506,1,1,0,81,false,stim,false,2,473,1,1,2,78689,WMM2,1428133,false,true,1654,image-keyboard-response,53
true,10,0,2,1,false,z,true,false,0.0-2.0-0.56-0.507-3.507,1,1,0,81,false,stim,false,2,496,1,1,2,78689,WMM2,1430161,false,false,1657,image-keyboard-response,54
true,10,1,2,0,false,q,true,true,0.0-2.0-0.56-0.508-3.508,1,1,0,90,false,stim,false,0,1030,1,0,0,78689,WMM2,1432714,false,true,1660,image-keyboard-response,55
true,10,1,2,0,false,q,true,false,0.0-2.0-0.56-0.509-3.509,1,1,0,90,false,stim,false,0,429,1,0,0,78689,WMM2,1434668,false,false,1663,image-keyboard-response,56
true,10,2,2,1,false,z,true,false,0.0-2.0-0.56-0.510-3.510,1,1,0,68,false,stim,false,1,1485,1,1,1,78689,WMM2,1437687,false,false,1666,image-keyboard-response,57
true,10,1,2,0,false,q,true,false,0.0-2.0-0.56-0.511-3.511,1,1,0,90,false,stim,false,0,557,1,0,0,78689,WMM2,1439775,false,false,1669,image-keyboard-response,58
true,10,1,2,1,true,z,false,true,0.0-2.0-0.56-0.512-3.512,1,1,0,90,false,stim,false,1,900,1,1,1,78689,WMM2,1442202,false,false,1672,image-keyboard-response,59
true,10,1,2,1,true,z,false,true,0.0-2.0-0.57-0.513-3.513,1,1,0,90,false,stim,false,1,527,1,1,1,78689,WMM2,1444252,false,false,1675,image-keyboard-response,60
true,11,0,4,1,false,z,true,false,0.0-2.0-0.57-0.514-3.514,0,1,1,81,true,stim,false,1,705,1,1,2,78689,WMM2,1446478,false,false,1678,image-keyboard-response,1
true,11,1,4,0,false,q,true,false,0.0-2.0-0.57-0.515-3.515,0,1,1,90,false,stim,false,0,574,1,0,0,78689,WMM2,1448570,false,false,1681,image-keyboard-response,2
true,11,2,4,1,false,z,true,false,0.0-2.0-0.57-0.516-3.516,0,1,1,68,false,stim,false,1,892,1,1,2,78689,WMM2,1450987,false,false,1684,image-keyboard-response,3
true,11,1,4,1,true,z,false,true,0.0-2.0-0.57-0.517-3.517,0,1,1,90,false,stim,false,1,639,1,1,2,78689,WMM2,1453146,false,false,1687,image-keyboard-response,4
true,11,1,4,1,true,z,false,false,0.0-2.0-0.57-0.518-3.518,0,1,1,90,false,stim,false,1,500,1,1,1,78689,WMM2,1455168,false,true,1690,image-keyboard-response,5
true,11,1,4,0,false,q,true,false,0.0-2.0-0.57-0.519-3.519,0,1,1,90,false,stim,false,0,569,1,0,0,78689,WMM2,1457260,false,false,1693,image-keyboard-response,6
true,11,0,4,0,true,q,false,false,0.0-2.0-0.57-0.520-3.520,0,1,1,81,false,stim,false,0,402,1,0,0,78689,WMM2,1459190,false,true,1696,image-keyboard-response,7
true,11,1,4,1,true,z,false,true,0.0-2.0-0.57-0.521-3.521,0,1,1,90,false,stim,false,1,538,1,1,1,78689,WMM2,1461251,false,false,1699,image-keyboard-response,8
true,11,0,4,1,false,z,true,false,0.0-2.0-0.58-0.522-3.522,0,1,1,81,false,stim,false,1,914,1,1,2,78689,WMM2,1463750,false,false,1702,image-keyboard-response,9
true,11,1,4,1,true,z,false,true,0.0-2.0-0.58-0.523-3.523,0,1,1,90,false,stim,false,1,853,1,1,1,78689,WMM2,1466134,false,false,1705,image-keyboard-response,10
true,11,1,4,0,false,q,true,false,0.0-2.0-0.58-0.524-3.524,0,1,1,90,false,stim,false,0,936,1,0,0,78689,WMM2,1468600,false,false,1708,image-keyboard-response,11
true,11,0,4,1,false,z,true,false,0.0-2.0-0.58-0.525-3.525,0,1,1,81,false,stim,false,1,458,1,1,2,78689,WMM2,1470581,false,false,1711,image-keyboard-response,12
true,11,1,4,0,false,q,true,false,0.0-2.0-0.58-0.526-3.526,0,1,1,90,false,stim,false,0,819,1,0,0,78689,WMM2,1472932,false,false,1714,image-keyboard-response,13
true,11,2,4,0,false,q,true,true,0.0-2.0-0.58-0.527-3.527,0,1,1,68,false,stim,false,0,514,1,0,0,78689,WMM2,1474973,false,true,1717,image-keyboard-response,14
true,11,1,4,1,true,z,false,true,0.0-2.0-0.58-0.528-3.528,0,1,1,90,false,stim,false,1,955,1,1,1,78689,WMM2,1477450,false,false,1720,image-keyboard-response,15
true,11,1,4,1,true,z,false,true,0.0-2.0-0.58-0.529-3.529,0,1,1,90,false,stim,false,1,472,1,1,1,78689,WMM2,1479448,false,false,1723,image-keyboard-response,16
true,11,1,4,1,true,z,false,true,0.0-2.0-0.58-0.530-3.530,0,1,1,90,false,stim,false,1,1214,1,1,2,78689,WMM2,1482195,false,false,1726,image-keyboard-response,17
true,11,0,4,1,false,z,true,false,0.0-2.0-0.59-0.531-3.531,0,1,1,81,false,stim,false,1,413,1,1,1,78689,WMM2,1484131,false,false,1729,image-keyboard-response,18
true,11,1,4,0,false,q,true,false,0.0-2.0-0.59-0.532-3.532,0,1,1,90,false,stim,false,0,317,1,0,0,78689,WMM2,1485977,false,false,1732,image-keyboard-response,19
true,11,2,4,1,false,z,true,true,0.0-2.0-0.59-0.533-3.533,0,1,1,68,false,stim,false,1,409,1,1,1,78689,WMM2,1487905,false,true,1735,image-keyboard-response,20
true,11,2,4,0,false,q,true,false,0.0-2.0-0.59-0.534-3.534,0,1,1,68,false,stim,false,0,545,1,0,0,78689,WMM2,1489986,false,false,1738,image-keyboard-response,21
true,11,1,4,1,true,z,false,true,0.0-2.0-0.59-0.535-3.535,0,1,1,90,false,stim,false,1,517,1,1,2,78689,WMM2,1492037,false,false,1741,image-keyboard-response,22
true,11,0,4,1,false,z,true,false,0.0-2.0-0.59-0.536-3.536,0,1,1,81,false,stim,false,1,534,1,1,1,78689,WMM2,1494124,false,false,1744,image-keyboard-response,23
true,11,1,4,1,true,z,false,true,0.0-2.0-0.59-0.537-3.537,0,1,1,90,false,stim,false,1,497,1,1,2,78689,WMM2,1496156,false,false,1747,image-keyboard-response,24
true,11,1,4,1,true,z,false,true,0.0-2.0-0.59-0.538-3.538,0,1,1,90,false,stim,false,1,635,1,1,2,78689,WMM2,1498330,false,false,1750,image-keyboard-response,25
true,11,1,4,0,false,q,true,false,0.0-2.0-0.59-0.539-3.539,0,1,1,90,false,stim,false,0,1039,1,0,0,78689,WMM2,1500920,false,false,1753,image-keyboard-response,26
true,11,1,4,1,true,z,false,true,0.0-2.0-0.60-0.540-3.540,0,1,1,90,false,stim,false,1,1028,1,1,1,78689,WMM2,1503485,false,false,1756,image-keyboard-response,27
true,11,0,4,1,false,z,true,false,0.0-2.0-0.60-0.541-3.541,0,1,1,81,false,stim,false,1,524,1,1,2,78689,WMM2,1505552,false,false,1759,image-keyboard-response,28
true,11,2,4,0,false,q,true,false,0.0-2.0-0.60-0.542-3.542,0,1,1,68,false,stim,false,0,518,1,0,0,78689,WMM2,1507621,false,false,1762,image-keyboard-response,29
true,11,1,4,0,false,q,true,false,0.0-2.0-0.60-0.543-3.543,0,1,1,90,false,stim,false,0,334,1,0,0,78689,WMM2,1509500,false,false,1765,image-keyboard-response,30
true,11,0,4,1,false,z,true,false,0.0-2.0-0.60-0.544-3.544,0,1,1,81,false,stim,false,1,302,1,1,1,78689,WMM2,1511336,false,false,1768,image-keyboard-response,31
true,11,1,4,1,true,z,false,true,0.0-2.0-0.60-0.545-3.545,0,1,1,90,false,stim,false,1,335,1,1,2,78689,WMM2,1513211,false,false,1771,image-keyboard-response,32
true,11,1,4,1,true,z,false,true,0.0-2.0-0.60-0.546-3.546,0,1,1,90,false,stim,false,1,369,1,1,2,78689,WMM2,1515129,false,false,1774,image-keyboard-response,33
true,11,2,4,0,false,q,true,false,0.0-2.0-0.60-0.547-3.547,0,1,1,68,false,stim,false,0,907,1,0,0,78689,WMM2,1517576,false,false,1777,image-keyboard-response,34
true,11,1,4,1,true,z,false,true,0.0-2.0-0.60-0.548-3.548,0,1,1,90,false,stim,false,1,445,1,1,1,78689,WMM2,1519552,false,false,1780,image-keyboard-response,35
true,11,0,4,1,false,z,true,false,0.0-2.0-0.61-0.549-3.549,0,1,1,81,false,stim,false,1,404,1,1,2,78689,WMM2,1521493,false,false,1783,image-keyboard-response,36
true,11,1,4,1,true,z,false,true,0.0-2.0-0.61-0.550-3.550,0,1,1,90,false,stim,false,1,391,1,1,1,78689,WMM2,1523429,false,false,1786,image-keyboard-response,37
true,11,1,4,1,true,z,false,true,0.0-2.0-0.61-0.551-3.551,0,1,1,90,false,stim,false,1,958,1,1,1,78689,WMM2,1525923,false,false,1789,image-keyboard-response,38
true,11,0,4,1,false,z,true,false,0.0-2.0-0.61-0.552-3.552,0,1,1,81,false,stim,false,1,1166,1,1,2,78689,WMM2,1528636,false,false,1792,image-keyboard-response,39
true,11,1,4,0,false,q,true,false,0.0-2.0-0.61-0.553-3.553,0,1,1,90,false,stim,false,0,480,1,0,0,78689,WMM2,1530645,false,false,1795,image-keyboard-response,40
true,11,2,4,0,false,q,true,false,0.0-2.0-0.61-0.554-3.554,0,1,1,68,false,stim,false,0,604,1,0,0,78689,WMM2,1532792,false,false,1798,image-keyboard-response,41
true,11,1,4,0,false,q,true,false,0.0-2.0-0.61-0.555-3.555,0,1,1,90,false,stim,false,0,488,1,0,0,78689,WMM2,1534861,false,false,1801,image-keyboard-response,42
true,11,0,4,1,false,z,true,false,0.0-2.0-0.61-0.556-3.556,0,1,1,81,false,stim,false,1,446,1,1,1,78689,WMM2,1536836,false,false,1804,image-keyboard-response,43
true,11,1,4,1,true,z,false,true,0.0-2.0-0.61-0.557-3.557,0,1,1,90,false,stim,false,1,1070,1,1,2,78689,WMM2,1539440,false,false,1807,image-keyboard-response,44
true,11,1,4,1,true,z,false,true,0.0-2.0-0.62-0.558-3.558,0,1,1,90,false,stim,false,1,423,1,1,2,78689,WMM2,1541402,false,false,1810,image-keyboard-response,45
true,11,1,4,1,true,z,false,true,0.0-2.0-0.62-0.559-3.559,0,1,1,90,false,stim,false,1,449,1,1,1,78689,WMM2,1543392,false,false,1813,image-keyboard-response,46
true,11,1,4,1,true,z,false,true,0.0-2.0-0.62-0.560-3.560,0,1,1,90,false,stim,false,1,428,1,1,1,78689,WMM2,1545362,false,false,1816,image-keyboard-response,47
true,11,0,4,0,true,q,false,true,0.0-2.0-0.62-0.561-3.561,0,1,1,81,false,stim,false,0,622,1,0,0,78689,WMM2,1547521,false,false,1819,image-keyboard-response,48
true,11,0,4,0,true,q,false,true,0.0-2.0-0.62-0.562-3.562,0,1,1,81,false,stim,false,0,505,1,0,0,78689,WMM2,1549575,false,false,1822,image-keyboard-response,49
true,11,0,4,0,true,q,false,true,0.0-2.0-0.62-0.563-3.563,0,1,1,81,false,stim,false,0,437,1,1,0,78689,WMM2,1551541,false,false,1825,image-keyboard-response,50
true,11,1,4,1,true,z,false,true,0.0-2.0-0.62-0.564-3.564,0,1,1,90,false,stim,false,1,719,1,0,1,78689,WMM2,1553786,false,false,1828,image-keyboard-response,51
true,11,1,4,1,true,z,false,true,0.0-2.0-0.62-0.565-3.565,0,1,1,90,false,stim,false,1,840,1,1,2,78689,WMM2,1556158,false,false,1831,image-keyboard-response,52
true,11,1,4,1,true,z,false,true,0.0-2.0-0.62-0.566-3.566,0,1,1,90,false,stim,false,1,510,1,1,2,78689,WMM2,1558199,false,false,1834,image-keyboard-response,53
true,11,0,4,0,true,q,false,true,0.0-2.0-0.63-0.567-3.567,0,1,1,81,false,stim,false,0,401,1,1,0,78689,WMM2,1560135,false,false,1837,image-keyboard-response,54
true,11,1,4,1,true,z,false,false,0.0-2.0-0.63-0.568-3.568,0,1,1,90,false,stim,false,1,908,1,0,1,78689,WMM2,1562563,false,true,1840,image-keyboard-response,55
true,11,0,4,0,true,q,false,false,0.0-2.0-0.63-0.569-3.569,0,1,1,81,false,stim,false,0,693,1,1,0,78689,WMM2,1564788,false,true,1843,image-keyboard-response,56
true,11,1,4,1,true,z,false,true,0.0-2.0-0.63-0.570-3.570,0,1,1,90,false,stim,false,1,385,1,1,2,78689,WMM2,1566697,false,false,1846,image-keyboard-response,57
true,11,1,4,1,true,z,false,true,0.0-2.0-0.63-0.571-3.571,0,1,1,90,false,stim,false,1,478,1,0,1,78689,WMM2,1568708,false,false,1849,image-keyboard-response,58
true,11,0,4,0,true,q,false,true,0.0-2.0-0.63-0.572-3.572,0,1,1,81,false,stim,false,0,1089,1,1,0,78689,WMM2,1571332,false,false,1852,image-keyboard-response,59
true,12,1,3,1,true,z,false,true,0.0-2.0-0.63-0.573-3.573,1,0,1,90,true,stim,false,1,1439,1,1,2,78689,WMM2,1574292,false,false,1855,image-keyboard-response,1
true,12,1,3,1,true,z,false,true,0.0-2.0-0.63-0.574-3.574,1,0,1,90,false,stim,false,1,2139,1,1,2,78689,WMM2,1577956,false,false,1858,image-keyboard-response,2
true,12,1,3,2,false,d,false,false,0.0-2.0-0.63-0.575-3.575,1,0,1,90,false,stim,true,1,435,1,0,1,78689,WMM2,1579920,false,false,1861,image-keyboard-response,3
true,12,1,3,2,false,d,false,false,0.0-2.0-0.64-0.576-3.576,1,0,1,90,false,stim,true,1,601,1,0,1,78689,WMM2,1582066,false,false,1864,image-keyboard-response,4
true,12,1,3,2,false,d,false,false,0.0-2.0-0.64-0.577-3.577,1,0,1,90,false,stim,true,1,1062,1,0,1,78689,WMM2,1584661,false,false,1867,image-keyboard-response,5
true,12,1,3,1,true,z,false,true,0.0-2.0-0.64-0.578-3.578,1,0,1,90,false,stim,false,1,493,1,1,2,78689,WMM2,1586680,false,false,1870,image-keyboard-response,6
true,12,1,3,1,true,z,false,true,0.0-2.0-0.64-0.579-3.579,1,0,1,90,false,stim,false,1,446,1,1,2,78689,WMM2,1588656,false,false,1873,image-keyboard-response,7
true,12,0,3,0,true,q,false,true,0.0-2.0-0.64-0.580-3.580,1,0,1,81,false,stim,false,0,536,1,1,0,78689,WMM2,1590725,false,false,1876,image-keyboard-response,8
true,12,1,3,1,true,z,false,false,0.0-2.0-0.64-0.581-3.581,1,0,1,90,false,stim,false,1,665,1,1,2,78689,WMM2,1592915,false,true,1879,image-keyboard-response,9
true,12,0,3,0,true,q,false,true,0.0-2.0-0.64-0.582-3.582,1,0,1,81,false,stim,false,0,523,1,1,0,78689,WMM2,1594962,false,false,1882,image-keyboard-response,10
true,12,1,3,0,false,q,true,false,0.0-2.0-0.64-0.583-3.583,1,0,1,90,false,stim,false,0,706,1,1,0,78689,WMM2,1597196,false,false,1885,image-keyboard-response,11
true,12,2,3,2,true,d,false,false,0.0-2.0-0.64-0.584-3.584,1,0,1,68,false,stim,false,1,1751,1,0,1,78689,WMM2,1600470,false,true,1888,image-keyboard-response,12
true,12,1,3,2,false,d,false,false,0.0-2.0-0.65-0.585-3.585,1,0,1,90,false,stim,true,1,502,1,0,1,78689,WMM2,1602497,false,false,1891,image-keyboard-response,13
true,12,0,3,1,false,z,true,false,0.0-2.0-0.65-0.586-3.586,1,0,1,81,false,stim,false,1,1023,1,1,2,78689,WMM2,1605048,false,false,1894,image-keyboard-response,14
true,12,1,3,0,false,q,true,false,0.0-2.0-0.65-0.587-3.587,1,0,1,90,false,stim,false,0,566,1,1,0,78689,WMM2,1607140,false,false,1897,image-keyboard-response,15
true,12,0,3,1,false,z,true,true,0.0-2.0-0.65-0.588-3.588,1,0,1,81,false,stim,false,1,371,1,1,2,78689,WMM2,1609041,false,true,1900,image-keyboard-response,16
true,12,0,3,2,false,d,true,false,0.0-2.0-0.65-0.589-3.589,1,0,1,81,false,stim,false,1,576,1,0,1,78689,WMM2,1611205,false,false,1903,image-keyboard-response,17
true,12,2,3,0,false,q,true,true,0.0-2.0-0.65-0.590-3.590,1,0,1,68,false,stim,false,0,1318,1,1,0,78689,WMM2,1614061,false,true,1906,image-keyboard-response,18
true,12,0,3,1,false,z,true,false,0.0-2.0-0.65-0.591-3.591,1,0,1,81,false,stim,false,1,837,1,1,2,78689,WMM2,1616430,false,false,1909,image-keyboard-response,19
true,12,2,3,0,false,q,true,false,0.0-2.0-0.65-0.592-3.592,1,0,1,68,false,stim,false,0,665,1,1,0,78689,WMM2,1618628,false,false,1912,image-keyboard-response,20
true,12,1,3,2,false,d,false,false,0.0-2.0-0.65-0.593-3.593,1,0,1,90,false,stim,true,1,1107,1,0,1,78689,WMM2,1621272,false,false,1915,image-keyboard-response,21
true,12,0,3,1,false,z,true,true,0.0-2.0-0.66-0.594-3.594,1,0,1,81,false,stim,false,1,1780,1,1,2,78689,WMM2,1624590,false,true,1918,image-keyboard-response,22
true,12,2,3,0,false,q,true,false,0.0-2.0-0.66-0.595-3.595,1,0,1,68,false,stim,false,0,1061,1,1,0,78689,WMM2,1627186,false,false,1921,image-keyboard-response,23
true,12,2,3,2,true,d,false,true,0.0-2.0-0.66-0.596-3.596,1,0,1,68,false,stim,false,1,1639,1,0,1,78689,WMM2,1630378,false,false,1924,image-keyboard-response,24
true,12,0,3,0,true,q,false,true,0.0-2.0-0.66-0.597-3.597,1,0,1,81,false,stim,false,0,908,1,1,0,78689,WMM2,1632828,false,false,1927,image-keyboard-response,25
true,12,0,3,0,true,q,false,false,0.0-2.0-0.66-0.598-3.598,1,0,1,81,false,stim,false,0,547,1,1,0,78689,WMM2,1634907,false,true,1930,image-keyboard-response,26
true,12,1,3,1,true,z,false,true,0.0-2.0-0.66-0.599-3.599,1,0,1,90,false,stim,false,1,836,1,1,2,78689,WMM2,1637273,false,false,1933,image-keyboard-response,27
true,12,2,3,2,true,d,false,true,0.0-2.0-0.66-0.600-3.600,1,0,1,68,false,stim,false,1,574,1,0,1,78689,WMM2,1639398,false,false,1936,image-keyboard-response,28
true,12,2,3,2,true,d,false,true,0.0-2.0-0.66-0.601-3.601,1,0,1,68,false,stim,false,1,427,1,0,1,78689,WMM2,1641364,false,false,1939,image-keyboard-response,29
true,12,1,3,1,true,z,false,true,0.0-2.0-0.66-0.602-3.602,1,0,1,90,false,stim,false,1,778,1,1,2,78689,WMM2,1643676,false,false,1942,image-keyboard-response,30
true,12,2,3,0,false,q,true,false,0.0-2.0-0.67-0.603-3.603,1,0,1,68,false,stim,false,0,1637,1,1,0,78689,WMM2,1646849,false,false,1945,image-keyboard-response,31
true,12,0,3,0,true,q,false,true,0.0-2.0-0.67-0.604-3.604,1,0,1,81,false,stim,false,0,1458,1,1,0,78689,WMM2,1649838,false,false,1948,image-keyboard-response,32
true,12,2,3,2,true,d,false,false,0.0-2.0-0.67-0.605-3.605,1,0,1,68,false,stim,false,1,1634,1,1,1,78689,WMM2,1652999,false,true,1951,image-keyboard-response,33
true,12,1,3,1,true,z,false,true,0.0-2.0-0.67-0.606-3.606,1,0,1,90,false,stim,false,1,1620,1,0,2,78689,WMM2,1656139,false,false,1954,image-keyboard-response,34
true,12,1,3,1,true,z,false,false,0.0-2.0-0.67-0.607-3.607,1,0,1,90,false,stim,false,1,460,1,0,2,78689,WMM2,1658124,false,true,1957,image-keyboard-response,35
true,12,1,3,1,true,z,false,true,0.0-2.0-0.67-0.608-3.608,1,0,1,90,false,stim,false,1,559,1,0,2,78689,WMM2,1660219,false,false,1960,image-keyboard-response,36
true,12,1,3,2,false,d,false,false,0.0-2.0-0.67-0.609-3.609,1,0,1,90,false,stim,true,1,515,1,1,1,78689,WMM2,1662269,false,false,1963,image-keyboard-response,37
true,12,2,3,0,false,q,true,false,0.0-2.0-0.67-0.610-3.610,1,0,1,68,false,stim,false,0,976,1,1,0,78689,WMM2,1664780,false,false,1966,image-keyboard-response,38
true,12,1,3,2,false,d,false,false,0.0-2.0-0.67-0.611-3.611,1,0,1,90,false,stim,true,1,666,1,1,1,78689,WMM2,1666990,false,false,1969,image-keyboard-response,39
true,12,1,3,2,false,d,false,false,0.0-2.0-0.68-0.612-3.612,1,0,1,90,false,stim,true,1,994,1,1,1,78689,WMM2,1669503,false,false,1972,image-keyboard-response,40
true,13,1,3,2,false,d,false,false,0.0-2.0-0.68-0.613-3.613,1,1,0,90,true,stim,true,1,1032,1,0,2,78689,WMM2,1672077,false,false,1975,image-keyboard-response,1
true,13,0,3,0,true,q,false,true,0.0-2.0-0.68-0.614-3.614,1,1,0,81,false,stim,false,0,1202,1,1,0,78689,WMM2,1674816,false,false,1978,image-keyboard-response,2
true,13,2,3,2,true,d,false,true,0.0-2.0-0.68-0.615-3.615,1,1,0,68,false,stim,false,2,1774,1,1,1,78689,WMM2,1678115,false,false,1981,image-keyboard-response,3
true,13,0,3,0,true,q,false,false,0.0-2.0-0.68-0.616-3.616,1,1,0,81,false,stim,false,0,2121,1,1,0,78689,WMM2,1681769,false,true,1984,image-keyboard-response,4
true,13,0,3,2,false,d,true,false,0.0-2.0-0.68-0.617-3.617,1,1,0,81,false,stim,false,1,1304,1,0,2,78689,WMM2,1684609,false,false,1987,image-keyboard-response,5
true,13,1,3,2,false,d,true,false,0.0-2.0-0.68-0.618-3.618,1,1,0,90,false,stim,false,2,818,1,1,1,78689,WMM2,1686958,false,false,1990,image-keyboard-response,6
true,13,2,3,0,false,q,true,false,0.0-2.0-0.68-0.619-3.619,1,1,0,68,false,stim,false,0,746,1,1,0,78689,WMM2,1689234,false,false,1993,image-keyboard-response,7
true,13,1,3,2,false,d,false,false,0.0-2.0-0.68-0.620-3.620,1,1,0,90,false,stim,true,1,1721,1,0,2,78689,WMM2,1692481,false,false,1996,image-keyboard-response,8
true,13,0,3,2,false,d,true,false,0.0-2.0-0.69-0.621-3.621,1,1,0,81,false,stim,false,2,924,1,1,1,78689,WMM2,1694927,false,false,1999,image-keyboard-response,9
true,13,2,3,0,false,q,true,false,0.0-2.0-0.69-0.622-3.622,1,1,0,68,false,stim,false,0,955,1,1,0,78689,WMM2,1697470,false,false,2002,image-keyboard-response,10
true,13,1,3,2,false,d,false,false,0.0-2.0-0.69-0.623-3.623,1,1,0,90,false,stim,true,1,807,1,0,2,78689,WMM2,1699817,false,false,2005,image-keyboard-response,11
true,13,0,3,2,false,d,true,false,0.0-2.0-0.69-0.624-3.624,1,1,0,81,false,stim,false,2,1908,1,1,1,78689,WMM2,1703253,false,false,2008,image-keyboard-response,12
true,13,1,3,2,false,d,true,false,0.0-2.0-0.69-0.625-3.625,1,1,0,90,false,stim,false,2,1978,1,1,1,78689,WMM2,1706762,false,false,2011,image-keyboard-response,13
true,13,2,3,0,false,q,true,false,0.0-2.0-0.69-0.626-3.626,1,1,0,68,false,stim,false,0,1044,1,1,0,78689,WMM2,1709339,false,false,2014,image-keyboard-response,14
true,13,0,3,0,true,q,false,true,0.0-2.0-0.69-0.627-3.627,1,1,0,81,false,stim,false,0,1430,1,1,0,78689,WMM2,1712299,false,false,2017,image-keyboard-response,15
true,13,1,3,2,false,d,false,false,0.0-2.0-0.69-0.628-3.628,1,1,0,90,false,stim,true,1,1646,1,0,2,78689,WMM2,1715470,false,false,2020,image-keyboard-response,16
true,13,2,3,2,true,d,false,true,0.0-2.0-0.69-0.629-3.629,1,1,0,68,false,stim,false,1,1032,1,0,2,78689,WMM2,1718036,false,false,2023,image-keyboard-response,17
true,13,1,3,2,false,d,true,false,0.0-2.0-0.70-0.630-3.630,1,1,0,90,false,stim,false,2,1879,1,1,1,78689,WMM2,1721452,false,false,2026,image-keyboard-response,18
true,13,0,3,0,true,q,false,true,0.0-2.0-0.70-0.631-3.631,1,1,0,81,false,stim,false,0,1237,1,1,0,78689,WMM2,1724218,false,false,2029,image-keyboard-response,19
true,13,0,3,0,true,q,false,true,0.0-2.0-0.70-0.632-3.632,1,1,0,81,false,stim,false,0,1178,1,1,0,78689,WMM2,1726930,false,false,2032,image-keyboard-response,20
true,13,2,3,2,true,d,false,true,0.0-2.0-0.70-0.633-3.633,1,1,0,68,false,stim,false,1,1102,1,0,2,78689,WMM2,1729572,false,false,2035,image-keyboard-response,21
true,13,1,3,0,false,q,true,false,0.0-2.0-0.70-0.634-3.634,1,1,0,90,false,stim,false,0,1209,1,1,0,78689,WMM2,1732326,false,false,2038,image-keyboard-response,22
true,13,2,3,2,true,d,false,true,0.0-2.0-0.70-0.635-3.635,1,1,0,68,false,stim,false,1,1252,1,0,2,78689,WMM2,1735117,false,false,2041,image-keyboard-response,23
true,13,0,3,2,false,d,true,false,0.0-2.0-0.70-0.636-3.636,1,1,0,81,false,stim,false,2,2171,1,1,1,78689,WMM2,1738824,false,false,2044,image-keyboard-response,24
