answered,blockNum,choice,condition,corResp,correct,correct_response,explo,fb,internal_node_id,isStable_1,isStable_2,isStable_3,key_press,newBlock,part,persev,persevResp,rt,sessNum,stableAS,stimulus,subject,task,time_elapsed,training,trap,trial_index,trial_type,trialsInBlock
true,1,0,0,0,true,q,false,true,0.0-2.0-0.0-0.0-3.0,0,0,0,81,true,stim,false,-1,1895.2000000476837,3,0,1,80509,WMM1,785273,false,false,139,image-keyboard-response,1
true,1,0,0,0,true,q,false,true,0.0-2.0-0.0-0.1-3.1,0,0,0,81,false,stim,false,-1,467.69999980926514,3,0,1,80509,WMM1,787263,false,false,142,image-keyboard-response,2
true,1,1,0,1,true,z,false,false,0.0-2.0-0.0-0.2-3.2,0,0,0,90,false,stim,false,-1,470.09999990463257,3,0,2,80509,WMM1,789258,false,true,145,image-keyboard-response,3
true,1,1,0,0,false,q,true,false,0.0-2.0-0.0-0.3-3.3,0,0,0,90,false,stim,false,-1,708.8000001907349,3,0,0,80509,WMM1,791483,false,false,148,image-keyboard-response,4
true,1,2,0,1,false,z,true,false,0.0-2.0-0.0-0.4-3.4,0,0,0,68,false,stim,false,-1,636.9000000953674,3,0,2,80509,WMM1,793645,false,false,151,image-keyboard-response,5
true,1,2,0,1,false,z,true,false,0.0-2.0-0.0-0.5-3.5,0,0,0,68,false,stim,false,-1,517.2999999523163,3,0,2,80509,WMM1,795672,false,false,154,image-keyboard-response,6
true,1,1,0,0,false,q,true,false,0.0-2.0-0.0-0.6-3.6,0,0,0,90,false,stim,false,-1,878.7000000476837,3,0,0,80509,WMM1,798067,false,false,157,image-keyboard-response,7
true,1,0,0,0,true,q,false,false,0.0-2.0-0.0-0.7-3.7,0,0,0,81,false,stim,false,-1,647.2000000476837,3,0,1,80509,WMM1,800238,false,true,160,image-keyboard-response,8
true,1,0,0,0,true,q,false,true,0.0-2.0-0.0-0.8-3.8,0,0,0,81,false,stim,false,-1,719.8999998569489,3,0,0,80509,WMM1,802475,false,false,163,image-keyboard-response,9
true,1,1,0,0,false,q,true,false,0.0-2.0-0.1-0.9-3.9,0,0,0,90,false,stim,false,-1,483.0,3,0,1,80509,WMM1,804478,false,false,166,image-keyboard-response,10
true,1,2,0,1,false,z,true,false,0.0-2.0-0.1-0.10-3.10,0,0,0,68,false,stim,false,-1,704.7999999523163,3,0,2,80509,WMM1,806694,false,false,169,image-keyboard-response,11
true,1,2,0,1,false,z,true,false,0.0-2.0-0.1-0.11-3.11,0,0,0,68,false,stim,false,-1,1042.0,3,0,2,80509,WMM1,809252,false,false,172,image-keyboard-response,12
true,1,0,0,0,true,q,false,true,0.0-2.0-0.1-0.12-3.12,0,0,0,81,false,stim,false,-1,620.4000000953674,3,0,1,80509,WMM1,811395,false,false,175,image-keyboard-response,13
true,1,0,0,0,true,q,false,true,0.0-2.0-0.1-0.13-3.13,0,0,0,81,false,stim,false,-1,895.5,3,0,0,80509,WMM1,813808,false,false,178,image-keyboard-response,14
true,1,0,0,0,true,q,false,true,0.0-2.0-0.1-0.14-3.14,0,0,0,81,false,stim,false,-1,546.5,3,0,0,80509,WMM1,815869,false,false,181,image-keyboard-response,15
true,1,2,0,1,false,z,true,false,0.0-2.0-0.1-0.15-3.15,0,0,0,68,false,stim,false,-1,1060.4000000953674,3,0,2,80509,WMM1,818453,false,false,184,image-keyboard-response,16
true,1,1,0,0,false,q,true,false,0.0-2.0-0.1-0.16-3.16,0,0,0,90,false,stim,false,-1,505.09999990463257,3,0,0,80509,WMM1,820477,false,false,187,image-keyboard-response,17
true,1,0,0,0,true,q,false,true,0.0-2.0-0.1-0.17-3.17,0,0,0,81,false,stim,false,-1,678.1000001430511,3,0,1,80509,WMM1,822682,false,false,190,image-keyboard-response,18
true,1,0,0,0,true,q,false,false,0.0-2.0-0.2-0.18-3.18,0,0,0,81,false,stim,false,-1,844.7000000476837,3,0,0,80509,WMM1,825043,false,true,193,image-keyboard-response,19
true,1,1,0,1,true,z,false,true,0.0-2.0-0.2-0.19-3.19,0,0,0,90,false,stim,false,-1,608.0999999046326,3,0,2,80509,WMM1,827174,false,false,196,image-keyboard-response,20
true,1,0,0,0,true,q,false,true,0.0-2.0-0.2-0.20-3.20,0,0,0,81,false,stim,false,-1,649.5,3,0,0,80509,WMM1,829347,false,false,199,image-keyboard-response,21
true,1,0,0,0,true,q,false,true,0.0-2.0-0.2-0.21-3.21,0,0,0,81,false,stim,false,-1,761.9000000953674,3,0,0,80509,WMM1,831628,false,false,202,image-keyboard-response,22
true,1,1,0,1,true,z,false,true,0.0-2.0-0.2-0.22-3.22,0,0,0,90,false,stim,false,-1,725.7999999523163,3,0,2,80509,WMM1,833878,false,false,205,image-keyboard-response,23
true,1,0,0,0,true,q,false,true,0.0-2.0-0.2-0.23-3.23,0,0,0,81,false,stim,false,-1,764.8000001907349,3,0,1,80509,WMM1,836164,false,false,208,image-keyboard-response,24
true,1,1,0,0,false,q,true,false,0.0-2.0-0.2-0.24-3.24,0,0,0,90,false,stim,false,-1,1320.9000000953674,3,0,1,80509,WMM1,839001,false,false,211,image-keyboard-response,25
true,1,0,0,0,true,q,false,true,0.0-2.0-0.2-0.25-3.25,0,0,0,81,false,stim,false,-1,569.0,3,0,1,80509,WMM1,841095,false,false,214,image-keyboard-response,26
true,1,1,0,1,true,z,false,true,0.0-2.0-0.2-0.26-3.26,0,0,0,90,false,stim,false,-1,1276.7000000476837,3,1,2,80509,WMM1,843886,false,false,217,image-keyboard-response,27
true,1,1,0,1,true,z,false,true,0.0-2.0-0.3-0.27-3.27,0,0,0,90,false,stim,false,-1,591.2999999523163,3,1,2,80509,WMM1,845991,false,false,220,image-keyboard-response,28
true,1,0,0,0,true,q,false,false,0.0-2.0-0.3-0.28-3.28,0,0,0,81,false,stim,false,-1,673.0,3,0,1,80509,WMM1,848172,false,true,223,image-keyboard-response,29
true,1,0,0,0,true,q,false,true,0.0-2.0-0.3-0.29-3.29,0,0,0,81,false,stim,false,-1,1237.4000000953674,3,0,1,80509,WMM1,850933,false,false,226,image-keyboard-response,30
true,1,0,0,0,true,q,false,true,0.0-2.0-0.3-0.30-3.30,0,0,0,81,false,stim,false,-1,1848.5999999046326,3,0,0,80509,WMM1,854292,false,false,229,image-keyboard-response,31
true,1,0,0,0,true,q,false,true,0.0-2.0-0.3-0.31-3.31,0,0,0,81,false,stim,false,-1,656.5,3,0,0,80509,WMM1,856460,false,false,232,image-keyboard-response,32
true,1,0,0,0,true,q,false,true,0.0-2.0-0.3-0.32-3.32,0,0,0,81,false,stim,false,-1,651.9000000953674,3,0,1,80509,WMM1,858626,false,false,235,image-keyboard-response,33
true,2,0,3,1,false,z,true,false,0.0-2.0-0.3-0.33-3.33,0,0,1,81,true,stim,false,1,1233.8999998569489,3,1,2,80509,WMM1,861368,false,false,238,image-keyboard-response,1
true,2,2,3,1,false,z,true,true,0.0-2.0-0.3-0.34-3.34,0,0,1,68,false,stim,false,1,676.7999999523163,3,1,2,80509,WMM1,863559,false,true,241,image-keyboard-response,2
true,2,2,3,1,false,z,true,false,0.0-2.0-0.3-0.35-3.35,0,0,1,68,false,stim,false,0,536.3999998569489,3,0,0,80509,WMM1,865622,false,false,244,image-keyboard-response,3
true,2,0,3,1,false,z,false,false,0.0-2.0-0.4-0.36-3.36,0,0,1,81,false,stim,true,0,547.5,3,0,0,80509,WMM1,867688,false,false,247,image-keyboard-response,4
true,2,2,3,2,true,d,false,true,0.0-2.0-0.4-0.37-3.37,0,0,1,68,false,stim,false,0,342.0,3,0,1,80509,WMM1,869538,false,false,250,image-keyboard-response,5
true,2,0,3,2,false,d,false,false,0.0-2.0-0.4-0.38-3.38,0,0,1,81,false,stim,true,0,495.80000019073486,3,0,1,80509,WMM1,871542,false,false,253,image-keyboard-response,6
true,2,1,3,1,true,z,false,true,0.0-2.0-0.4-0.39-3.39,0,0,1,90,false,stim,false,1,417.90000009536743,3,1,2,80509,WMM1,873487,false,false,256,image-keyboard-response,7
true,2,1,3,1,true,z,false,true,0.0-2.0-0.4-0.40-3.40,0,0,1,90,false,stim,false,1,1227.5999999046326,3,1,2,80509,WMM1,876232,false,false,259,image-keyboard-response,8
true,2,1,3,1,true,z,false,true,0.0-2.0-0.4-0.41-3.41,0,0,1,90,false,stim,false,1,1145.2000000476837,3,1,2,80509,WMM1,878894,false,false,262,image-keyboard-response,9
true,2,1,3,2,false,d,true,false,0.0-2.0-0.4-0.42-3.42,0,0,1,90,false,stim,false,0,635.5,3,0,1,80509,WMM1,881047,false,false,265,image-keyboard-response,10
true,2,0,3,1,false,z,false,false,0.0-2.0-0.4-0.43-3.43,0,0,1,81,false,stim,true,0,1143.5999999046326,3,0,0,80509,WMM1,883710,false,false,268,image-keyboard-response,11
true,2,1,3,1,true,z,false,true,0.0-2.0-0.4-0.44-3.44,0,0,1,90,false,stim,false,0,1040.8999998569489,3,0,0,80509,WMM1,886267,false,false,271,image-keyboard-response,12
true,2,1,3,1,true,z,false,true,0.0-2.0-0.5-0.45-3.45,0,0,1,90,false,stim,false,0,870.8999998569489,3,0,0,80509,WMM1,888662,false,false,274,image-keyboard-response,13
true,2,1,3,1,true,z,false,true,0.0-2.0-0.5-0.46-3.46,0,0,1,90,false,stim,false,1,769.7000000476837,3,1,2,80509,WMM1,890956,false,false,277,image-keyboard-response,14
true,2,1,3,1,true,z,false,true,0.0-2.0-0.5-0.47-3.47,0,0,1,90,false,stim,false,1,611.8999998569489,3,1,2,80509,WMM1,893079,false,false,280,image-keyboard-response,15
true,2,1,3,1,true,z,false,true,0.0-2.0-0.5-0.48-3.48,0,0,1,90,false,stim,false,1,445.19999980926514,3,1,2,80509,WMM1,895045,false,false,283,image-keyboard-response,16
true,2,1,3,1,true,z,false,true,0.0-2.0-0.5-0.49-3.49,0,0,1,90,false,stim,false,0,566.7999999523163,3,0,0,80509,WMM1,897132,false,false,286,image-keyboard-response,17
true,2,1,3,2,false,d,true,true,0.0-2.0-0.5-0.50-3.50,0,0,1,90,false,stim,false,0,444.69999980926514,3,0,1,80509,WMM1,899101,false,true,289,image-keyboard-response,18
true,2,1,3,2,false,d,true,false,0.0-2.0-0.5-0.51-3.51,0,0,1,90,false,stim,false,0,798.5,3,0,1,80509,WMM1,901425,false,false,292,image-keyboard-response,19
true,2,1,3,1,true,z,false,true,0.0-2.0-0.5-0.52-3.52,0,0,1,90,false,stim,false,0,514.0999999046326,3,0,0,80509,WMM1,903452,false,false,295,image-keyboard-response,20
true,2,1,3,2,false,d,true,false,0.0-2.0-0.5-0.53-3.53,0,0,1,90,false,stim,false,0,496.2000000476837,3,0,1,80509,WMM1,905461,false,false,298,image-keyboard-response,21
true,2,2,3,1,false,z,true,false,0.0-2.0-0.6-0.54-3.54,0,0,1,68,false,stim,false,0,413.80000019073486,3,0,0,80509,WMM1,907392,false,false,301,image-keyboard-response,22
true,2,1,3,1,true,z,false,true,0.0-2.0-0.6-0.55-3.55,0,0,1,90,false,stim,false,0,539.5999999046326,3,0,0,80509,WMM1,909442,false,false,304,image-keyboard-response,23
true,2,1,3,2,false,d,true,false,0.0-2.0-0.6-0.56-3.56,0,0,1,90,false,stim,false,0,381.59999990463257,3,0,1,80509,WMM1,911339,false,false,307,image-keyboard-response,24
true,2,2,3,1,false,z,true,false,0.0-2.0-0.6-0.57-3.57,0,0,1,68,false,stim,false,1,304.7999999523163,3,1,2,80509,WMM1,913159,false,false,310,image-keyboard-response,25
true,2,0,3,1,false,z,false,false,0.0-2.0-0.6-0.58-3.58,0,0,1,81,false,stim,true,0,140.29999995231628,3,0,0,80509,WMM1,914815,false,false,313,image-keyboard-response,26
true,2,2,3,2,true,d,false,true,0.0-2.0-0.6-0.59-3.59,0,0,1,68,false,stim,false,0,144.60000014305115,3,0,1,80509,WMM1,916485,false,false,316,image-keyboard-response,27
true,2,1,3,2,false,d,true,false,0.0-2.0-0.6-0.60-3.60,0,0,1,90,false,stim,false,0,555.2999999523163,3,0,1,80509,WMM1,918565,false,false,319,image-keyboard-response,28
true,2,2,3,1,false,z,true,false,0.0-2.0-0.6-0.61-3.61,0,0,1,68,false,stim,false,1,140.10000014305115,3,1,2,80509,WMM1,920220,false,false,322,image-keyboard-response,29
true,2,1,3,1,true,z,false,true,0.0-2.0-0.6-0.62-3.62,0,0,1,90,false,stim,false,1,545.7999999523163,3,1,2,80509,WMM1,922295,false,false,325,image-keyboard-response,30
true,2,1,3,1,true,z,false,true,0.0-2.0-0.7-0.63-3.63,0,0,1,90,false,stim,false,0,450.7000000476837,3,0,0,80509,WMM1,924270,false,false,328,image-keyboard-response,31
true,2,2,3,1,false,z,true,false,0.0-2.0-0.7-0.64-3.64,0,0,1,68,false,stim,false,0,1043.2000000476837,3,0,0,80509,WMM1,926838,false,false,331,image-keyboard-response,32
true,2,1,3,2,false,d,true,false,0.0-2.0-0.7-0.65-3.65,0,0,1,90,false,stim,false,0,590.2000000476837,3,0,1,80509,WMM1,928952,false,false,334,image-keyboard-response,33
true,2,2,3,1,false,z,true,false,0.0-2.0-0.7-0.66-3.66,0,0,1,68,false,stim,false,1,388.5,3,1,2,80509,WMM1,930857,false,false,337,image-keyboard-response,34
true,2,2,3,1,false,z,true,false,0.0-2.0-0.7-0.67-3.67,0,0,1,68,false,stim,false,0,1404.0,3,0,0,80509,WMM1,933777,false,false,340,image-keyboard-response,35
true,2,1,3,1,true,z,false,true,0.0-2.0-0.7-0.68-3.68,0,0,1,90,false,stim,false,1,325.10000014305115,3,1,2,80509,WMM1,935612,false,false,343,image-keyboard-response,36
true,2,0,3,1,false,z,true,false,0.0-2.0-0.7-0.69-3.69,0,0,1,81,false,stim,false,1,1198.2999999523163,3,1,2,80509,WMM1,938330,false,false,346,image-keyboard-response,37
true,2,2,3,2,true,d,false,false,0.0-2.0-0.7-0.70-3.70,0,0,1,68,false,stim,false,0,1117.5,3,0,1,80509,WMM1,940964,false,true,349,image-keyboard-response,38
true,2,1,3,2,false,d,true,false,0.0-2.0-0.7-0.71-3.71,0,0,1,90,false,stim,false,0,788.9000000953674,3,0,1,80509,WMM1,943269,false,false,352,image-keyboard-response,39
true,2,1,3,1,true,z,false,true,0.0-2.0-0.8-0.72-3.72,0,0,1,90,false,stim,false,0,620.0999999046326,3,0,0,80509,WMM1,945399,false,false,355,image-keyboard-response,40
true,2,1,3,1,true,z,false,true,0.0-2.0-0.8-0.73-3.73,0,0,1,90,false,stim,false,0,292.10000014305115,3,0,0,80509,WMM1,947215,false,false,358,image-keyboard-response,41
true,2,1,3,2,false,d,true,false,0.0-2.0-0.8-0.74-3.74,0,0,1,90,false,stim,false,0,544.2000000476837,3,0,1,80509,WMM1,949284,false,false,361,image-keyboard-response,42
true,2,1,3,2,false,d,true,false,0.0-2.0-0.8-0.75-3.75,0,0,1,90,false,stim,false,0,807.6000001430511,3,0,1,80509,WMM1,951620,false,false,364,image-keyboard-response,43
true,2,1,3,1,true,z,false,true,0.0-2.0-0.8-0.76-3.76,0,0,1,90,false,stim,false,1,309.2000000476837,3,1,2,80509,WMM1,953443,false,false,367,image-keyboard-response,44
true,2,1,3,1,true,z,false,false,0.0-2.0-0.8-0.77-3.77,0,0,1,90,false,stim,false,0,774.0999999046326,3,0,0,80509,WMM1,955737,false,true,370,image-keyboard-response,45
true,2,2,3,2,true,d,false,true,0.0-2.0-0.8-0.78-3.78,0,0,1,68,false,stim,false,0,279.09999990463257,3,0,1,80509,WMM1,957539,false,false,373,image-keyboard-response,46
true,2,2,3,1,false,z,true,false,0.0-2.0-0.8-0.79-3.79,0,0,1,68,false,stim,false,1,575.7999999523163,3,1,2,80509,WMM1,959637,false,false,376,image-keyboard-response,47
true,2,1,3,1,true,z,false,true,0.0-2.0-0.8-0.80-3.80,0,0,1,90,false,stim,false,1,482.2999999523163,3,1,2,80509,WMM1,961647,false,false,379,image-keyboard-response,48
true,2,1,3,1,true,z,false,true,0.0-2.0-0.9-0.81-3.81,0,0,1,90,false,stim,false,1,657.9000000953674,3,1,2,80509,WMM1,963823,false,false,382,image-keyboard-response,49
true,2,1,3,2,false,d,true,false,0.0-2.0-0.9-0.82-3.82,0,0,1,90,false,stim,false,0,440.80000019073486,3,0,1,80509,WMM1,965773,false,false,385,image-keyboard-response,50
true,2,1,3,1,true,z,false,true,0.0-2.0-0.9-0.83-3.83,0,0,1,90,false,stim,false,0,211.60000014305115,3,1,0,80509,WMM1,967505,false,false,388,image-keyboard-response,51
true,2,1,3,1,true,z,false,true,0.0-2.0-0.9-0.84-3.84,0,0,1,90,false,stim,false,1,320.7999999523163,3,0,2,80509,WMM1,969343,false,false,391,image-keyboard-response,52
true,2,2,3,1,false,z,true,false,0.0-2.0-0.9-0.85-3.85,0,0,1,68,false,stim,false,1,381.7999999523163,3,0,2,80509,WMM1,971242,false,false,394,image-keyboard-response,53
true,2,1,3,2,false,d,true,true,0.0-2.0-0.9-0.86-3.86,0,0,1,90,false,stim,false,0,356.30000019073486,3,0,1,80509,WMM1,973114,false,true,397,image-keyboard-response,54
true,2,1,3,2,false,d,true,false,0.0-2.0-0.9-0.87-3.87,0,0,1,90,false,stim,false,0,371.0,3,0,1,80509,WMM1,974995,false,false,400,image-keyboard-response,55
true,2,1,3,1,true,z,false,true,0.0-2.0-0.9-0.88-3.88,0,0,1,90,false,stim,false,0,438.0,3,1,0,80509,WMM1,976947,false,false,403,image-keyboard-response,56
true,2,1,3,1,true,z,false,true,0.0-2.0-0.9-0.89-3.89,0,0,1,90,false,stim,false,0,917.0999999046326,3,1,0,80509,WMM1,979379,false,false,406,image-keyboard-response,57
true,2,1,3,2,false,d,true,false,0.0-2.0-0.10-0.90-3.90,0,0,1,90,false,stim,false,0,252.70000004768372,3,0,1,80509,WMM1,981162,false,false,409,image-keyboard-response,58
true,2,2,3,1,false,z,true,false,0.0-2.0-0.10-0.91-3.91,0,0,1,68,false,stim,false,0,296.2000000476837,3,1,0,80509,WMM1,982984,false,false,412,image-keyboard-response,59
true,2,2,3,1,false,z,true,false,0.0-2.0-0.10-0.92-3.92,0,0,1,68,false,stim,false,0,991.8999998569489,3,1,0,80509,WMM1,985492,false,false,415,image-keyboard-response,60
true,3,1,3,2,false,d,false,false,0.0-2.0-0.10-0.93-3.93,1,0,0,90,true,stim,true,1,237.40000009536743,3,0,2,80509,WMM1,987254,false,false,418,image-keyboard-response,1
true,3,0,3,1,false,z,true,true,0.0-2.0-0.10-0.94-3.94,1,0,0,81,false,stim,false,1,438.2000000476837,3,1,0,80509,WMM1,989203,false,true,421,image-keyboard-response,2
true,3,0,3,2,false,d,true,false,0.0-2.0-0.10-0.95-3.95,1,0,0,81,false,stim,false,1,367.69999980926514,3,0,2,80509,WMM1,991096,false,false,424,image-keyboard-response,3
true,3,0,3,0,true,q,false,true,0.0-2.0-0.10-0.96-3.96,1,0,0,81,false,stim,false,2,679.4000000953674,3,0,1,80509,WMM1,993291,false,false,427,image-keyboard-response,4
true,3,1,3,0,false,q,true,true,0.0-2.0-0.10-0.97-3.97,1,0,0,90,false,stim,false,2,265.7999999523163,3,0,1,80509,WMM1,995079,false,true,430,image-keyboard-response,5
true,3,1,3,2,false,d,false,false,0.0-2.0-0.10-0.98-3.98,1,0,0,90,false,stim,true,1,469.7000000476837,3,0,2,80509,WMM1,997060,false,false,433,image-keyboard-response,6
true,3,0,3,2,false,d,true,false,0.0-2.0-0.11-0.99-3.99,1,0,0,81,false,stim,false,1,711.0999999046326,3,0,2,80509,WMM1,999286,false,false,436,image-keyboard-response,7
true,3,2,3,0,false,q,false,false,0.0-2.0-0.11-0.100-3.100,1,0,0,68,false,stim,true,2,658.7999999523163,3,0,1,80509,WMM1,1001459,false,false,439,image-keyboard-response,8
true,3,1,3,0,false,q,true,false,0.0-2.0-0.11-0.101-3.101,1,0,0,90,false,stim,false,2,262.2000000476837,3,0,1,80509,WMM1,1003240,false,false,442,image-keyboard-response,9
true,3,2,3,1,false,z,true,false,0.0-2.0-0.11-0.102-3.102,1,0,0,68,false,stim,false,1,1071.7999999523163,3,1,0,80509,WMM1,1005831,false,false,445,image-keyboard-response,10
true,3,1,3,0,false,q,true,false,0.0-2.0-0.11-0.103-3.103,1,0,0,90,false,stim,false,2,1205.5999999046326,3,0,1,80509,WMM1,1008559,false,false,448,image-keyboard-response,11
true,3,2,3,2,true,d,false,true,0.0-2.0-0.11-0.104-3.104,1,0,0,68,false,stim,false,1,290.40000009536743,3,0,2,80509,WMM1,1010377,false,false,451,image-keyboard-response,12
true,3,2,3,2,true,d,false,true,0.0-2.0-0.11-0.105-3.105,1,0,0,68,false,stim,false,1,519.2999999523163,3,0,2,80509,WMM1,1012412,false,false,454,image-keyboard-response,13
true,3,2,3,1,false,z,true,false,0.0-2.0-0.11-0.106-3.106,1,0,0,68,false,stim,false,1,602.5,3,1,0,80509,WMM1,1014532,false,false,457,image-keyboard-response,14
true,3,1,3,1,true,z,false,true,0.0-2.0-0.11-0.107-3.107,1,0,0,90,false,stim,false,1,2078.7999999523163,3,1,0,80509,WMM1,1018127,false,false,460,image-keyboard-response,15
true,3,2,3,2,true,d,false,true,0.0-2.0-0.12-0.108-3.108,1,0,0,68,false,stim,false,1,547.8000001907349,3,0,2,80509,WMM1,1020183,false,false,463,image-keyboard-response,16
true,3,2,3,2,true,d,false,true,0.0-2.0-0.12-0.109-3.109,1,0,0,68,false,stim,false,1,363.59999990463257,3,0,2,80509,WMM1,1022065,false,false,466,image-keyboard-response,17
true,3,2,3,0,false,q,false,false,0.0-2.0-0.12-0.110-3.110,1,0,0,68,false,stim,true,2,443.2999999523163,3,0,1,80509,WMM1,1024033,false,false,469,image-keyboard-response,18
true,3,1,3,1,true,z,false,true,0.0-2.0-0.12-0.111-3.111,1,0,0,90,false,stim,false,1,1038.5,3,1,0,80509,WMM1,1026591,false,false,472,image-keyboard-response,19
true,3,2,3,0,false,q,false,false,0.0-2.0-0.12-0.112-3.112,1,0,0,68,false,stim,true,2,1248.9000000953674,3,0,1,80509,WMM1,1029350,false,false,475,image-keyboard-response,20
true,3,2,3,2,true,d,false,true,0.0-2.0-0.12-0.113-3.113,1,0,0,68,false,stim,false,1,1680.7000000476837,3,0,2,80509,WMM1,1032552,false,false,478,image-keyboard-response,21
true,3,2,3,1,false,z,true,false,0.0-2.0-0.12-0.114-3.114,1,0,0,68,false,stim,false,1,228.70000004768372,3,1,0,80509,WMM1,1034303,false,false,481,image-keyboard-response,22
true,3,1,3,1,true,z,false,true,0.0-2.0-0.12-0.115-3.115,1,0,0,90,false,stim,false,1,260.10000014305115,3,1,0,80509,WMM1,1036080,false,false,484,image-keyboard-response,23
true,3,1,3,0,false,q,true,false,0.0-2.0-0.12-0.116-3.116,1,0,0,90,false,stim,false,2,364.2000000476837,3,0,1,80509,WMM1,1037976,false,false,487,image-keyboard-response,24
true,3,1,3,2,false,d,false,false,0.0-2.0-0.13-0.117-3.117,1,0,0,90,false,stim,true,1,478.2000000476837,3,0,2,80509,WMM1,1039969,false,false,490,image-keyboard-response,25
true,3,1,3,0,false,q,true,false,0.0-2.0-0.13-0.118-3.118,1,0,0,90,false,stim,false,2,185.40000009536743,3,0,1,80509,WMM1,1041680,false,false,493,image-keyboard-response,26
true,3,1,3,0,false,q,true,false,0.0-2.0-0.13-0.119-3.119,1,0,0,90,false,stim,false,2,421.39999985694885,3,0,1,80509,WMM1,1043618,false,false,496,image-keyboard-response,27
true,3,1,3,2,false,d,false,false,0.0-2.0-0.13-0.120-3.120,1,0,0,90,false,stim,true,1,495.09999990463257,3,0,2,80509,WMM1,1045622,false,false,499,image-keyboard-response,28
true,3,0,3,1,false,z,true,false,0.0-2.0-0.13-0.121-3.121,1,0,0,81,false,stim,false,1,1019.6000001430511,3,1,0,80509,WMM1,1048155,false,false,502,image-keyboard-response,29
true,3,1,3,1,true,z,false,true,0.0-2.0-0.13-0.122-3.122,1,0,0,90,false,stim,false,1,325.09999990463257,3,1,0,80509,WMM1,1049996,false,false,505,image-keyboard-response,30
true,3,1,3,0,false,q,true,false,0.0-2.0-0.13-0.123-3.123,1,0,0,90,false,stim,false,2,330.2000000476837,3,0,1,80509,WMM1,1051835,false,false,508,image-keyboard-response,31
true,3,1,3,1,true,z,false,false,0.0-2.0-0.13-0.124-3.124,1,0,0,90,false,stim,false,1,354.7000000476837,3,1,0,80509,WMM1,1053698,false,true,511,image-keyboard-response,32
true,3,1,3,2,false,d,false,false,0.0-2.0-0.13-0.125-3.125,1,0,0,90,false,stim,true,1,297.2999999523163,3,0,2,80509,WMM1,1055510,false,false,514,image-keyboard-response,33
true,3,2,3,2,true,d,false,true,0.0-2.0-0.14-0.126-3.126,1,0,0,68,false,stim,false,1,509.7000000476837,3,0,2,80509,WMM1,1057550,false,false,517,image-keyboard-response,34
true,3,1,3,1,true,z,false,true,0.0-2.0-0.14-0.127-3.127,1,0,0,90,false,stim,false,1,727.1999998092651,3,1,0,80509,WMM1,1059797,false,false,520,image-keyboard-response,35
true,3,2,3,2,true,d,false,false,0.0-2.0-0.14-0.128-3.128,1,0,0,68,false,stim,false,1,379.80000019073486,3,0,2,80509,WMM1,1061684,false,true,523,image-keyboard-response,36
true,3,2,3,1,false,z,true,false,0.0-2.0-0.14-0.129-3.129,1,0,0,68,false,stim,false,1,454.39999985694885,3,1,0,80509,WMM1,1063658,false,false,526,image-keyboard-response,37
true,3,2,3,2,true,d,false,true,0.0-2.0-0.14-0.130-3.130,1,0,0,68,false,stim,false,1,712.0,3,0,2,80509,WMM1,1065896,false,false,529,image-keyboard-response,38
true,3,1,3,0,false,q,true,false,0.0-2.0-0.14-0.131-3.131,1,0,0,90,false,stim,false,2,517.1000001430511,3,0,1,80509,WMM1,1067930,false,false,532,image-keyboard-response,39
true,3,2,3,1,false,z,true,false,0.0-2.0-0.14-0.132-3.132,1,0,0,68,false,stim,false,1,1189.7000000476837,3,1,0,80509,WMM1,1070631,false,false,535,image-keyboard-response,40
true,3,1,3,0,false,q,true,false,0.0-2.0-0.14-0.133-3.133,1,0,0,90,false,stim,false,2,904.0,3,0,1,80509,WMM1,1073049,false,false,538,image-keyboard-response,41
true,3,2,3,0,false,q,false,false,0.0-2.0-0.14-0.134-3.134,1,0,0,68,false,stim,true,2,282.39999985694885,3,0,1,80509,WMM1,1074852,false,false,541,image-keyboard-response,42
true,3,1,3,0,false,q,true,false,0.0-2.0-0.15-0.135-3.135,1,0,0,90,false,stim,false,2,464.2999999523163,3,0,1,80509,WMM1,1076843,false,false,544,image-keyboard-response,43
true,3,1,3,0,false,q,true,false,0.0-2.0-0.15-0.136-3.136,1,0,0,90,false,stim,false,2,1788.7000000476837,3,0,1,80509,WMM1,1080143,false,false,547,image-keyboard-response,44
true,3,1,3,1,true,z,false,true,0.0-2.0-0.15-0.137-3.137,1,0,0,90,false,stim,false,1,428.5,3,1,0,80509,WMM1,1082086,false,false,550,image-keyboard-response,45
true,3,1,3,2,false,d,false,false,0.0-2.0-0.15-0.138-3.138,1,0,0,90,false,stim,true,1,304.40000009536743,3,0,2,80509,WMM1,1083927,false,false,553,image-keyboard-response,46
true,3,2,3,0,false,q,false,false,0.0-2.0-0.15-0.139-3.139,1,0,0,68,false,stim,true,2,70.89999985694885,3,0,1,80509,WMM1,1085526,false,false,556,image-keyboard-response,47
true,3,0,3,2,false,d,true,false,0.0-2.0-0.15-0.140-3.140,1,0,0,81,false,stim,false,1,1281.3999998569489,3,0,2,80509,WMM1,1088331,false,false,559,image-keyboard-response,48
true,3,1,3,1,true,z,false,true,0.0-2.0-0.15-0.141-3.141,1,0,0,90,false,stim,false,1,230.90000009536743,3,1,0,80509,WMM1,1090078,false,false,562,image-keyboard-response,49
true,3,1,3,1,true,z,false,true,0.0-2.0-0.15-0.142-3.142,1,0,0,90,false,stim,false,1,1257.4000000953674,3,1,0,80509,WMM1,1092850,false,false,565,image-keyboard-response,50
true,3,1,3,2,false,d,false,false,0.0-2.0-0.15-0.143-3.143,1,0,0,90,false,stim,true,1,356.0,3,0,2,80509,WMM1,1094720,false,false,568,image-keyboard-response,51
true,3,1,3,1,true,z,false,true,0.0-2.0-0.16-0.144-3.144,1,0,0,90,false,stim,false,1,317.59999990463257,3,0,0,80509,WMM1,1096551,false,false,571,image-keyboard-response,52
true,3,1,3,0,false,q,true,false,0.0-2.0-0.16-0.145-3.145,1,0,0,90,false,stim,false,2,864.7999999523163,3,0,1,80509,WMM1,1098925,false,false,574,image-keyboard-response,53
true,3,2,3,1,false,z,true,false,0.0-2.0-0.16-0.146-3.146,1,0,0,68,false,stim,false,1,296.90000009536743,3,0,0,80509,WMM1,1100739,false,false,577,image-keyboard-response,54
true,3,0,3,0,true,q,false,true,0.0-2.0-0.16-0.147-3.147,1,0,0,81,false,stim,false,2,354.60000014305115,3,0,1,80509,WMM1,1102613,false,false,580,image-keyboard-response,55
true,3,0,3,2,false,d,true,false,0.0-2.0-0.16-0.148-3.148,1,0,0,81,false,stim,false,1,335.7000000476837,3,0,2,80509,WMM1,1104466,false,false,583,image-keyboard-response,56
true,3,2,3,2,true,d,false,true,0.0-2.0-0.16-0.149-3.149,1,0,0,68,false,stim,false,1,160.40000009536743,3,0,2,80509,WMM1,1106147,false,false,586,image-keyboard-response,57
true,3,0,3,1,false,z,true,true,0.0-2.0-0.16-0.150-3.150,1,0,0,81,false,stim,false,1,593.4000000953674,3,0,0,80509,WMM1,1108272,false,true,589,image-keyboard-response,58
true,3,0,3,2,false,d,true,false,0.0-2.0-0.16-0.151-3.151,1,0,0,81,false,stim,false,1,1014.5999999046326,3,0,2,80509,WMM1,1110801,false,false,592,image-keyboard-response,59
true,3,2,3,0,false,q,false,false,0.0-2.0-0.16-0.152-3.152,1,0,0,68,false,stim,true,2,369.69999980926514,3,0,1,80509,WMM1,1112678,false,false,595,image-keyboard-response,60
true,4,1,1,0,false,q,false,true,0.0-2.0-0.17-0.153-3.153,0,0,0,90,true,stim,true,1,857.8000001907349,3,0,0,80509,WMM1,1115054,false,true,598,image-keyboard-response,1
true,4,1,1,1,true,z,false,true,0.0-2.0-0.17-0.154-3.154,0,0,0,90,false,stim,false,2,178.0,3,0,2,80509,WMM1,1116751,false,false,601,image-keyboard-response,2
true,4,1,1,0,false,q,false,false,0.0-2.0-0.17-0.155-3.155,0,0,0,90,false,stim,true,1,754.1999998092651,3,0,0,80509,WMM1,1119027,false,false,604,image-keyboard-response,3
true,4,1,1,2,false,d,true,true,0.0-2.0-0.17-0.156-3.156,0,0,0,90,false,stim,false,0,326.10000014305115,3,0,1,80509,WMM1,1120877,false,true,607,image-keyboard-response,4
true,4,1,1,2,false,d,true,false,0.0-2.0-0.17-0.157-3.157,0,0,0,90,false,stim,false,0,457.40000009536743,3,0,1,80509,WMM1,1122852,false,false,610,image-keyboard-response,5
true,4,2,1,1,false,z,false,false,0.0-2.0-0.17-0.158-3.158,0,0,0,68,false,stim,true,2,489.40000009536743,3,0,2,80509,WMM1,1124853,false,false,613,image-keyboard-response,6
true,4,0,1,0,true,q,false,false,0.0-2.0-0.17-0.159-3.159,0,0,0,81,false,stim,false,1,215.0,3,0,0,80509,WMM1,1126580,false,true,616,image-keyboard-response,7
true,4,1,1,1,true,z,false,true,0.0-2.0-0.17-0.160-3.160,0,0,0,90,false,stim,false,2,434.40000009536743,3,0,2,80509,WMM1,1128543,false,false,619,image-keyboard-response,8
true,4,0,1,2,false,d,false,false,0.0-2.0-0.17-0.161-3.161,0,0,0,81,false,stim,true,0,39.0,3,0,1,80509,WMM1,1130107,false,false,622,image-keyboard-response,9
true,4,2,1,0,false,q,true,false,0.0-2.0-0.18-0.162-3.162,0,0,0,68,false,stim,false,1,261.59999990463257,3,0,0,80509,WMM1,1131888,false,false,625,image-keyboard-response,10
true,4,1,1,0,false,q,false,false,0.0-2.0-0.18-0.163-3.163,0,0,0,90,false,stim,true,1,133.69999980926514,3,0,0,80509,WMM1,1133542,false,false,628,image-keyboard-response,11
true,4,2,1,2,true,d,false,true,0.0-2.0-0.18-0.164-3.164,0,0,0,68,false,stim,false,0,234.70000004768372,3,0,1,80509,WMM1,1135287,false,false,631,image-keyboard-response,12
true,4,1,1,2,false,d,true,false,0.0-2.0-0.18-0.165-3.165,0,0,0,90,false,stim,false,0,544.2999999523163,3,0,1,80509,WMM1,1137345,false,false,634,image-keyboard-response,13
true,4,2,1,1,false,z,false,false,0.0-2.0-0.18-0.166-3.166,0,0,0,68,false,stim,true,2,25.299999952316284,3,0,2,80509,WMM1,1138887,false,false,637,image-keyboard-response,14
true,4,0,1,0,true,q,false,true,0.0-2.0-0.18-0.167-3.167,0,0,0,81,false,stim,false,1,239.79999995231628,3,0,0,80509,WMM1,1140649,false,false,640,image-keyboard-response,15
true,4,1,1,1,true,z,false,true,0.0-2.0-0.18-0.168-3.168,0,0,0,90,false,stim,false,2,176.09999990463257,3,0,2,80509,WMM1,1142341,false,false,643,image-keyboard-response,16
true,4,1,1,2,false,d,true,false,0.0-2.0-0.18-0.169-3.169,0,0,0,90,false,stim,false,0,1004.0,3,0,1,80509,WMM1,1144857,false,false,646,image-keyboard-response,17
true,4,1,1,1,true,z,false,true,0.0-2.0-0.18-0.170-3.170,0,0,0,90,false,stim,false,2,516.5999999046326,3,0,2,80509,WMM1,1146888,false,false,649,image-keyboard-response,18
true,4,0,1,0,true,q,false,true,0.0-2.0-0.19-0.171-3.171,0,0,0,81,false,stim,false,1,382.69999980926514,3,0,0,80509,WMM1,1148793,false,false,652,image-keyboard-response,19
true,4,0,1,1,false,z,true,false,0.0-2.0-0.19-0.172-3.172,0,0,0,81,false,stim,false,2,192.89999985694885,3,0,2,80509,WMM1,1150504,false,false,655,image-keyboard-response,20
true,4,0,1,2,false,d,false,false,0.0-2.0-0.19-0.173-3.173,0,0,0,81,false,stim,true,0,195.90000009536743,3,0,1,80509,WMM1,1152218,false,false,658,image-keyboard-response,21
true,4,1,1,0,false,q,false,false,0.0-2.0-0.19-0.174-3.174,0,0,0,90,false,stim,true,1,50.200000047683716,3,0,0,80509,WMM1,1153785,false,false,661,image-keyboard-response,22
true,4,1,1,2,false,d,true,true,0.0-2.0-0.19-0.175-3.175,0,0,0,90,false,stim,false,0,93.60000014305115,3,0,1,80509,WMM1,1155397,false,true,664,image-keyboard-response,23
true,4,2,1,1,false,z,false,false,0.0-2.0-0.19-0.176-3.176,0,0,0,68,false,stim,true,2,295.7000000476837,3,0,2,80509,WMM1,1157215,false,false,667,image-keyboard-response,24
true,4,1,1,1,true,z,false,true,0.0-2.0-0.19-0.177-3.177,0,0,0,90,false,stim,false,2,337.89999985694885,3,0,2,80509,WMM1,1159074,false,false,670,image-keyboard-response,25
true,4,1,1,2,false,d,true,false,0.0-2.0-0.19-0.178-3.178,0,0,0,90,false,stim,false,0,7.3999998569488525,3,0,1,80509,WMM1,1160590,false,false,673,image-keyboard-response,26
true,4,0,1,0,true,q,false,true,0.0-2.0-0.19-0.179-3.179,0,0,0,81,false,stim,false,1,636.0999999046326,3,0,0,80509,WMM1,1162746,false,false,676,image-keyboard-response,27
true,4,1,1,0,false,q,false,false,0.0-2.0-0.20-0.180-3.180,0,0,0,90,false,stim,true,1,502.2999999523163,3,0,0,80509,WMM1,1164763,false,false,679,image-keyboard-response,28
true,4,2,1,2,true,d,false,true,0.0-2.0-0.20-0.181-3.181,0,0,0,68,false,stim,false,0,129.40000009536743,3,0,1,80509,WMM1,1166415,false,false,682,image-keyboard-response,29
true,4,1,1,0,false,q,false,false,0.0-2.0-0.20-0.182-3.182,0,0,0,90,false,stim,true,1,367.59999990463257,3,0,0,80509,WMM1,1168310,false,false,685,image-keyboard-response,30
true,4,1,1,1,true,z,false,true,0.0-2.0-0.20-0.183-3.183,0,0,0,90,false,stim,false,2,363.30000019073486,3,0,2,80509,WMM1,1170194,false,false,688,image-keyboard-response,31
true,4,1,1,0,false,q,false,false,0.0-2.0-0.20-0.184-3.184,0,0,0,90,false,stim,true,1,305.60000014305115,3,0,0,80509,WMM1,1172013,false,false,691,image-keyboard-response,32
true,4,1,1,1,true,z,false,true,0.0-2.0-0.20-0.185-3.185,0,0,0,90,false,stim,false,2,469.7999999523163,3,0,2,80509,WMM1,1174008,false,false,694,image-keyboard-response,33
true,4,1,1,2,false,d,true,false,0.0-2.0-0.20-0.186-3.186,0,0,0,90,false,stim,false,0,415.2000000476837,3,0,1,80509,WMM1,1175942,false,false,697,image-keyboard-response,34
true,4,1,1,1,true,z,false,true,0.0-2.0-0.20-0.187-3.187,0,0,0,90,false,stim,false,2,282.5,3,0,2,80509,WMM1,1177740,false,false,700,image-keyboard-response,35
true,4,2,1,2,true,d,false,true,0.0-2.0-0.20-0.188-3.188,0,0,0,68,false,stim,false,0,569.2000000476837,3,0,1,80509,WMM1,1179844,false,false,703,image-keyboard-response,36
true,4,2,1,2,true,d,false,true,0.0-2.0-0.21-0.189-3.189,0,0,0,68,false,stim,false,0,314.80000019073486,3,0,1,80509,WMM1,1181672,false,false,706,image-keyboard-response,37
true,4,0,1,0,true,q,false,false,0.0-2.0-0.21-0.190-3.190,0,0,0,81,false,stim,false,1,466.10000014305115,3,0,0,80509,WMM1,1183661,false,true,709,image-keyboard-response,38
true,4,1,1,1,true,z,false,true,0.0-2.0-0.21-0.191-3.191,0,0,0,90,false,stim,false,2,387.59999990463257,3,0,2,80509,WMM1,1185570,false,false,712,image-keyboard-response,39
true,4,0,1,0,true,q,false,true,0.0-2.0-0.21-0.192-3.192,0,0,0,81,false,stim,false,1,450.2000000476837,3,0,0,80509,WMM1,1187551,false,false,715,image-keyboard-response,40
true,4,1,1,0,false,q,false,false,0.0-2.0-0.21-0.193-3.193,0,0,0,90,false,stim,true,1,1688.5,3,0,0,80509,WMM1,1190763,false,false,718,image-keyboard-response,41
true,4,0,1,1,false,z,true,false,0.0-2.0-0.21-0.194-3.194,0,0,0,81,false,stim,false,2,1298.2000000476837,3,0,2,80509,WMM1,1193582,false,false,721,image-keyboard-response,42
true,4,0,1,2,false,d,false,false,0.0-2.0-0.21-0.195-3.195,0,0,0,81,false,stim,true,0,916.5,3,0,1,80509,WMM1,1196012,false,false,724,image-keyboard-response,43
true,4,1,1,1,true,z,false,true,0.0-2.0-0.21-0.196-3.196,0,0,0,90,false,stim,false,2,388.2000000476837,3,0,2,80509,WMM1,1197916,false,false,727,image-keyboard-response,44
true,4,1,1,2,false,d,true,false,0.0-2.0-0.21-0.197-3.197,0,0,0,90,false,stim,false,0,264.40000009536743,3,0,1,80509,WMM1,1199699,false,false,730,image-keyboard-response,45
true,4,2,1,2,true,d,false,true,0.0-2.0-0.22-0.198-3.198,0,0,0,68,false,stim,false,0,461.80000019073486,3,0,1,80509,WMM1,1201683,false,false,733,image-keyboard-response,46
true,4,1,1,1,true,z,false,true,0.0-2.0-0.22-0.199-3.199,0,0,0,90,false,stim,false,2,247.30000019073486,3,0,2,80509,WMM1,1203458,false,false,736,image-keyboard-response,47
true,4,1,1,0,false,q,false,false,0.0-2.0-0.22-0.200-3.200,0,0,0,90,false,stim,true,1,853.2999999523163,3,0,0,80509,WMM1,1205834,false,false,739,image-keyboard-response,48
true,4,0,1,1,false,z,true,false,0.0-2.0-0.22-0.201-3.201,0,0,0,81,false,stim,false,2,454.5,3,0,2,80509,WMM1,1207799,false,false,742,image-keyboard-response,49
true,4,1,1,0,false,q,false,false,0.0-2.0-0.22-0.202-3.202,0,0,0,90,false,stim,true,1,54.40000009536743,3,0,0,80509,WMM1,1209362,false,false,745,image-keyboard-response,50
true,5,2,4,2,true,d,false,true,0.0-2.0-0.22-0.203-3.203,0,0,0,68,true,stim,false,0,137.5,3,0,0,80509,WMM1,1211024,false,false,748,image-keyboard-response,1
true,5,1,4,1,true,z,false,true,0.0-2.0-0.22-0.204-3.204,0,0,0,90,false,stim,false,2,681.3000001907349,3,0,1,80509,WMM1,1213230,false,false,751,image-keyboard-response,2
true,5,1,4,0,false,q,false,false,0.0-2.0-0.22-0.205-3.205,0,0,0,90,false,stim,true,1,773.4000000953674,3,0,2,80509,WMM1,1215521,false,false,754,image-keyboard-response,3
true,5,0,4,1,false,z,true,false,0.0-2.0-0.22-0.206-3.206,0,0,0,81,false,stim,false,2,349.5,3,0,1,80509,WMM1,1217384,false,false,757,image-keyboard-response,4
true,5,1,4,2,false,d,true,false,0.0-2.0-0.23-0.207-3.207,0,0,0,90,false,stim,false,0,274.7000000476837,3,0,0,80509,WMM1,1219178,false,false,760,image-keyboard-response,5
true,5,1,4,0,false,q,false,false,0.0-2.0-0.23-0.208-3.208,0,0,0,90,false,stim,true,1,422.39999985694885,3,0,2,80509,WMM1,1221120,false,false,763,image-keyboard-response,6
true,5,0,4,2,false,d,false,false,0.0-2.0-0.23-0.209-3.209,0,0,0,81,false,stim,true,0,452.7999999523163,3,0,0,80509,WMM1,1223086,false,false,766,image-keyboard-response,7
true,5,1,4,2,false,d,true,true,0.0-2.0-0.23-0.210-3.210,0,0,0,90,false,stim,false,0,501.2999999523163,3,0,0,80509,WMM1,1225094,false,true,769,image-keyboard-response,8
true,5,1,4,0,false,q,false,false,0.0-2.0-0.23-0.211-3.211,0,0,0,90,false,stim,true,1,587.2000000476837,3,0,2,80509,WMM1,1227202,false,false,772,image-keyboard-response,9
true,5,1,4,1,true,z,false,true,0.0-2.0-0.23-0.212-3.212,0,0,0,90,false,stim,false,2,417.7000000476837,3,0,1,80509,WMM1,1229145,false,false,775,image-keyboard-response,10
true,5,2,4,0,false,q,true,true,0.0-2.0-0.23-0.213-3.213,0,0,0,68,false,stim,false,1,1338.2000000476837,3,0,2,80509,WMM1,1232007,false,true,778,image-keyboard-response,11
true,5,2,4,1,false,z,false,true,0.0-2.0-0.23-0.214-3.214,0,0,0,68,false,stim,true,2,648.2000000476837,3,0,1,80509,WMM1,1234178,false,true,781,image-keyboard-response,12
true,5,1,4,1,true,z,false,true,0.0-2.0-0.23-0.215-3.215,0,0,0,90,false,stim,false,2,359.5,3,0,1,80509,WMM1,1236052,false,false,784,image-keyboard-response,13
true,5,1,4,1,true,z,false,true,0.0-2.0-0.24-0.216-3.216,0,0,0,90,false,stim,false,2,51.5,3,0,1,80509,WMM1,1237620,false,false,787,image-keyboard-response,14
true,5,2,4,1,false,z,false,false,0.0-2.0-0.24-0.217-3.217,0,0,0,68,false,stim,true,2,519.7999999523163,3,0,1,80509,WMM1,1239659,false,false,790,image-keyboard-response,15
true,5,2,4,0,false,q,true,false,0.0-2.0-0.24-0.218-3.218,0,0,0,68,false,stim,false,1,993.2999999523163,3,0,2,80509,WMM1,1242162,false,false,793,image-keyboard-response,16
true,5,1,4,2,false,d,true,false,0.0-2.0-0.24-0.219-3.219,0,0,0,90,false,stim,false,0,1471.5,3,0,0,80509,WMM1,1245155,false,false,796,image-keyboard-response,17
true,5,2,4,0,false,q,true,false,0.0-2.0-0.24-0.220-3.220,0,0,0,68,false,stim,false,1,1093.8999998569489,3,0,2,80509,WMM1,1247771,false,false,799,image-keyboard-response,18
true,5,1,4,2,false,d,true,false,0.0-2.0-0.24-0.221-3.221,0,0,0,90,false,stim,false,0,1592.0999999046326,3,0,0,80509,WMM1,1250893,false,false,802,image-keyboard-response,19
true,5,2,4,2,true,d,false,true,0.0-2.0-0.24-0.222-3.222,0,0,0,68,false,stim,false,0,1498.7999999523163,3,0,0,80509,WMM1,1253927,false,false,805,image-keyboard-response,20
true,5,2,4,1,false,z,false,false,0.0-2.0-0.24-0.223-3.223,0,0,0,68,false,stim,true,2,921.0,3,0,1,80509,WMM1,1256376,false,false,808,image-keyboard-response,21
true,5,1,4,0,false,q,false,false,0.0-2.0-0.24-0.224-3.224,0,0,0,90,false,stim,true,1,926.9000000953674,3,0,2,80509,WMM1,1258829,false,false,811,image-keyboard-response,22
true,5,0,4,1,false,z,true,false,0.0-2.0-0.25-0.225-3.225,0,0,0,81,false,stim,false,2,562.2999999523163,3,0,1,80509,WMM1,1260910,false,false,814,image-keyboard-response,23
true,5,1,4,2,false,d,true,true,0.0-2.0-0.25-0.226-3.226,0,0,0,90,false,stim,false,0,130.09999990463257,3,0,0,80509,WMM1,1262559,false,true,817,image-keyboard-response,24
true,5,2,4,2,true,d,false,true,0.0-2.0-0.25-0.227-3.227,0,0,0,68,false,stim,false,0,994.7000000476837,3,0,0,80509,WMM1,1265069,false,false,820,image-keyboard-response,25
true,5,2,4,0,false,q,true,false,0.0-2.0-0.25-0.228-3.228,0,0,0,68,false,stim,false,1,152.90000009536743,3,0,2,80509,WMM1,1266734,false,false,823,image-keyboard-response,26
true,5,1,4,1,true,z,false,true,0.0-2.0-0.25-0.229-3.229,0,0,0,90,false,stim,false,2,2117.7999999523163,3,0,1,80509,WMM1,1270374,false,false,826,image-keyboard-response,27
true,5,2,4,0,false,q,true,false,0.0-2.0-0.25-0.230-3.230,0,0,0,68,false,stim,false,1,471.30000019073486,3,0,2,80509,WMM1,1272367,false,false,829,image-keyboard-response,28
true,5,2,4,2,true,d,false,true,0.0-2.0-0.25-0.231-3.231,0,0,0,68,false,stim,false,0,615.1000001430511,3,0,0,80509,WMM1,1274502,false,false,832,image-keyboard-response,29
true,5,2,4,0,false,q,true,false,0.0-2.0-0.25-0.232-3.232,0,0,0,68,false,stim,false,1,394.30000019073486,3,0,2,80509,WMM1,1276410,false,false,835,image-keyboard-response,30
true,5,1,4,1,true,z,false,true,0.0-2.0-0.25-0.233-3.233,0,0,0,90,false,stim,false,2,283.7999999523163,3,0,1,80509,WMM1,1278205,false,false,838,image-keyboard-response,31
true,5,1,4,2,false,d,true,false,0.0-2.0-0.26-0.234-3.234,0,0,0,90,false,stim,false,0,1166.0999999046326,3,0,0,80509,WMM1,1280896,false,false,841,image-keyboard-response,32
true,5,2,4,0,false,q,true,false,0.0-2.0-0.26-0.235-3.235,0,0,0,68,false,stim,false,1,1020.0999999046326,3,0,2,80509,WMM1,1283431,false,false,844,image-keyboard-response,33
true,5,0,4,0,true,q,false,true,0.0-2.0-0.26-0.236-3.236,0,0,0,81,false,stim,false,1,338.30000019073486,3,0,2,80509,WMM1,1285289,false,false,847,image-keyboard-response,34
true,5,0,4,1,false,z,true,false,0.0-2.0-0.26-0.237-3.237,0,0,0,81,false,stim,false,2,445.2000000476837,3,0,1,80509,WMM1,1287256,false,false,850,image-keyboard-response,35
true,5,2,4,2,true,d,false,true,0.0-2.0-0.26-0.238-3.238,0,0,0,68,false,stim,false,0,261.59999990463257,3,0,0,80509,WMM1,1289048,false,false,853,image-keyboard-response,36
true,5,0,4,1,false,z,true,false,0.0-2.0-0.26-0.239-3.239,0,0,0,81,false,stim,false,2,814.0999999046326,3,0,1,80509,WMM1,1291378,false,false,856,image-keyboard-response,37
true,5,0,4,0,true,q,false,true,0.0-2.0-0.26-0.240-3.240,0,0,0,81,false,stim,false,1,965.1000001430511,3,0,2,80509,WMM1,1293867,false,false,859,image-keyboard-response,38
true,5,2,4,2,true,d,false,true,0.0-2.0-0.26-0.241-3.241,0,0,0,68,false,stim,false,0,1288.0999999046326,3,0,0,80509,WMM1,1296678,false,false,862,image-keyboard-response,39
true,5,1,4,1,true,z,false,false,0.0-2.0-0.26-0.242-3.242,0,0,0,90,false,stim,false,2,413.2999999523163,3,0,1,80509,WMM1,1298608,false,true,865,image-keyboard-response,40
true,5,0,4,1,false,z,true,false,0.0-2.0-0.27-0.243-3.243,0,0,0,81,false,stim,false,2,359.0,3,0,1,80509,WMM1,1300480,false,false,868,image-keyboard-response,41
true,5,2,4,2,true,d,false,true,0.0-2.0-0.27-0.244-3.244,0,0,0,68,false,stim,false,0,411.40000009536743,3,0,0,80509,WMM1,1302419,false,false,871,image-keyboard-response,42
true,5,1,4,0,false,q,false,false,0.0-2.0-0.27-0.245-3.245,0,0,0,90,false,stim,true,1,497.09999990463257,3,0,2,80509,WMM1,1304441,false,false,874,image-keyboard-response,43
true,5,2,4,1,false,z,false,false,0.0-2.0-0.27-0.246-3.246,0,0,0,68,false,stim,true,2,383.60000014305115,3,0,1,80509,WMM1,1306352,false,false,877,image-keyboard-response,44
true,5,1,4,1,true,z,false,true,0.0-2.0-0.27-0.247-3.247,0,0,0,90,false,stim,false,2,555.7999999523163,3,0,1,80509,WMM1,1308440,false,false,880,image-keyboard-response,45
true,5,2,4,2,true,d,false,true,0.0-2.0-0.27-0.248-3.248,0,0,0,68,false,stim,false,0,752.5,3,0,0,80509,WMM1,1310721,false,false,883,image-keyboard-response,46
true,5,2,4,2,true,d,false,true,0.0-2.0-0.27-0.249-3.249,0,0,0,68,false,stim,false,0,447.10000014305115,3,0,0,80509,WMM1,1312683,false,false,886,image-keyboard-response,47
true,5,0,4,0,true,q,false,true,0.0-2.0-0.27-0.250-3.250,0,0,0,81,false,stim,false,1,867.0,3,0,2,80509,WMM1,1315078,false,false,889,image-keyboard-response,48
true,5,0,4,0,true,q,false,true,0.0-2.0-0.27-0.251-3.251,0,0,0,81,false,stim,false,1,839.5999999046326,3,0,2,80509,WMM1,1317436,false,false,892,image-keyboard-response,49
true,5,2,4,2,true,d,false,true,0.0-2.0-0.28-0.252-3.252,0,0,0,68,false,stim,false,0,1320.0,3,0,0,80509,WMM1,1320274,false,false,895,image-keyboard-response,50
true,5,0,4,0,true,q,false,true,0.0-2.0-0.28-0.253-3.253,0,0,0,81,false,stim,false,1,888.0999999046326,3,0,2,80509,WMM1,1322688,false,false,898,image-keyboard-response,51
true,5,2,4,2,true,d,false,false,0.0-2.0-0.28-0.254-3.254,0,0,0,68,false,stim,false,0,633.3999998569489,3,0,0,80509,WMM1,1324840,false,true,901,image-keyboard-response,52
true,5,0,4,1,false,z,true,true,0.0-2.0-0.28-0.255-3.255,0,0,0,81,false,stim,false,2,762.2000000476837,3,0,1,80509,WMM1,1327124,false,true,904,image-keyboard-response,53
true,5,0,4,1,false,z,true,false,0.0-2.0-0.28-0.256-3.256,0,0,0,81,false,stim,false,2,598.9000000953674,3,0,1,80509,WMM1,1329244,false,false,907,image-keyboard-response,54
true,5,1,4,0,false,q,false,false,0.0-2.0-0.28-0.257-3.257,0,0,0,90,false,stim,true,1,373.59999990463257,3,0,2,80509,WMM1,1331141,false,false,910,image-keyboard-response,55
true,5,2,4,2,true,d,false,true,0.0-2.0-0.28-0.258-3.258,0,0,0,68,false,stim,false,0,444.59999990463257,3,0,0,80509,WMM1,1333110,false,false,913,image-keyboard-response,56
true,5,2,4,1,false,z,false,false,0.0-2.0-0.28-0.259-3.259,0,0,0,68,false,stim,true,2,576.4000000953674,3,0,1,80509,WMM1,1335193,false,false,916,image-keyboard-response,57
true,5,1,4,0,false,q,false,false,0.0-2.0-0.28-0.260-3.260,0,0,0,90,false,stim,true,1,704.2000000476837,3,0,2,80509,WMM1,1337410,false,false,919,image-keyboard-response,58
true,5,1,4,2,false,d,true,false,0.0-2.0-0.29-0.261-3.261,0,0,0,90,false,stim,false,0,1055.2000000476837,3,0,0,80509,WMM1,1339984,false,false,922,image-keyboard-response,59
true,5,1,4,1,true,z,false,true,0.0-2.0-0.29-0.262-3.262,0,0,0,90,false,stim,false,2,699.0,3,0,1,80509,WMM1,1342203,false,false,925,image-keyboard-response,60
true,6,2,2,0,false,q,false,false,0.0-2.0-0.29-0.263-3.263,0,0,0,68,true,stim,true,2,211.5,3,0,0,80509,WMM1,1343936,false,false,928,image-keyboard-response,1
true,6,0,2,2,false,d,true,false,0.0-2.0-0.29-0.264-3.264,0,0,0,81,false,stim,false,1,285.40000009536743,3,0,1,80509,WMM1,1345750,false,false,931,image-keyboard-response,2
true,6,2,2,1,false,z,true,false,0.0-2.0-0.29-0.265-3.265,0,0,0,68,false,stim,false,0,177.59999990463257,3,0,2,80509,WMM1,1347449,false,false,934,image-keyboard-response,3
true,6,2,2,1,false,z,true,false,0.0-2.0-0.29-0.266-3.266,0,0,0,68,false,stim,false,0,683.2999999523163,3,0,2,80509,WMM1,1349645,false,false,937,image-keyboard-response,4
true,6,2,2,0,false,q,false,false,0.0-2.0-0.29-0.267-3.267,0,0,0,68,false,stim,true,2,1162.2999999523163,3,0,0,80509,WMM1,1352317,false,false,940,image-keyboard-response,5
true,6,1,2,2,false,d,false,false,0.0-2.0-0.29-0.268-3.268,0,0,0,90,false,stim,true,1,873.7999999523163,3,0,1,80509,WMM1,1354720,false,false,943,image-keyboard-response,6
true,6,1,2,1,true,z,false,true,0.0-2.0-0.29-0.269-3.269,0,0,0,90,false,stim,false,0,348.40000009536743,3,0,2,80509,WMM1,1356592,false,false,946,image-keyboard-response,7
true,6,1,2,1,true,z,false,true,0.0-2.0-0.30-0.270-3.270,0,0,0,90,false,stim,false,0,659.7000000476837,3,0,2,80509,WMM1,1358767,false,false,949,image-keyboard-response,8
true,6,2,2,2,true,d,false,true,0.0-2.0-0.30-0.271-3.271,0,0,0,68,false,stim,false,1,250.59999990463257,3,0,1,80509,WMM1,1360544,false,false,952,image-keyboard-response,9
true,6,1,2,2,false,d,false,false,0.0-2.0-0.30-0.272-3.272,0,0,0,90,false,stim,true,1,245.79999995231628,3,0,1,80509,WMM1,1362305,false,false,955,image-keyboard-response,10
true,6,2,2,1,false,z,true,true,0.0-2.0-0.30-0.273-3.273,0,0,0,68,false,stim,false,0,248.0,3,0,2,80509,WMM1,1364061,false,true,958,image-keyboard-response,11
true,6,0,2,2,false,d,true,false,0.0-2.0-0.30-0.274-3.274,0,0,0,81,false,stim,false,1,101.5,3,0,1,80509,WMM1,1365686,false,false,961,image-keyboard-response,12
true,6,2,2,1,false,z,true,false,0.0-2.0-0.30-0.275-3.275,0,0,0,68,false,stim,false,0,161.40000009536743,3,0,2,80509,WMM1,1367362,false,false,964,image-keyboard-response,13
true,6,1,2,0,false,q,true,false,0.0-2.0-0.30-0.276-3.276,0,0,0,90,false,stim,false,2,955.3999998569489,3,0,0,80509,WMM1,1369832,false,false,967,image-keyboard-response,14
true,6,1,2,0,false,q,true,false,0.0-2.0-0.30-0.277-3.277,0,0,0,90,false,stim,false,2,196.79999995231628,3,0,0,80509,WMM1,1371551,false,false,970,image-keyboard-response,15
true,6,1,2,0,false,q,true,false,0.0-2.0-0.30-0.278-3.278,0,0,0,90,false,stim,false,2,859.8999998569489,3,0,0,80509,WMM1,1373928,false,false,973,image-keyboard-response,16
true,6,1,2,2,false,d,false,false,0.0-2.0-0.31-0.279-3.279,0,0,0,90,false,stim,true,1,598.5,3,0,1,80509,WMM1,1376038,false,false,976,image-keyboard-response,17
true,6,1,2,1,true,z,false,true,0.0-2.0-0.31-0.280-3.280,0,0,0,90,false,stim,false,0,1664.8999998569489,3,0,2,80509,WMM1,1379219,false,false,979,image-keyboard-response,18
true,6,2,2,0,false,q,false,false,0.0-2.0-0.31-0.281-3.281,0,0,0,68,false,stim,true,2,1027.0,3,0,0,80509,WMM1,1381770,false,false,982,image-keyboard-response,19
true,6,0,2,1,false,z,false,false,0.0-2.0-0.31-0.282-3.282,0,0,0,81,false,stim,true,0,2417.9000000953674,3,0,2,80509,WMM1,1385709,false,false,985,image-keyboard-response,20
true,6,2,2,0,false,q,false,false,0.0-2.0-0.31-0.283-3.283,0,0,0,68,false,stim,true,2,277.90000009536743,3,0,0,80509,WMM1,1387503,false,false,988,image-keyboard-response,21
true,6,1,2,2,false,d,false,false,0.0-2.0-0.31-0.284-3.284,0,0,0,90,false,stim,true,1,541.5999999046326,3,0,1,80509,WMM1,1389575,false,false,991,image-keyboard-response,22
true,6,2,2,0,false,q,false,false,0.0-2.0-0.31-0.285-3.285,0,0,0,68,false,stim,true,2,494.60000014305115,3,0,0,80509,WMM1,1391598,false,false,994,image-keyboard-response,23
true,6,2,2,2,true,d,false,true,0.0-2.0-0.31-0.286-3.286,0,0,0,68,false,stim,false,1,984.1000001430511,3,0,1,80509,WMM1,1394109,false,false,997,image-keyboard-response,24
true,6,1,2,1,true,z,false,true,0.0-2.0-0.31-0.287-3.287,0,0,0,90,false,stim,false,0,1091.6000001430511,3,0,2,80509,WMM1,1396719,false,false,1000,image-keyboard-response,25
true,6,0,2,1,false,z,false,false,0.0-2.0-0.32-0.288-3.288,0,0,0,81,false,stim,true,0,561.3000001907349,3,0,2,80509,WMM1,1398816,false,false,1003,image-keyboard-response,26
true,6,0,2,2,false,d,true,false,0.0-2.0-0.32-0.289-3.289,0,0,0,81,false,stim,false,1,938.9000000953674,3,0,1,80509,WMM1,1401270,false,false,1006,image-keyboard-response,27
true,6,1,2,2,false,d,false,false,0.0-2.0-0.32-0.290-3.290,0,0,0,90,false,stim,true,1,1332.7000000476837,3,0,1,80509,WMM1,1404126,false,false,1009,image-keyboard-response,28
false,6,-1,2,1,false,z,true,false,0.0-2.0-0.32-0.291-3.291,0,0,0,,false,stim,false,0,,3,0,2,80509,WMM1,1408657,false,false,1012,image-keyboard-response,29
true,6,1,2,0,false,q,true,false,0.0-2.0-0.32-0.292-3.292,0,0,0,90,false,stim,false,2,377.7999999523163,3,0,0,80509,WMM1,1410560,false,false,1015,image-keyboard-response,30
true,6,2,2,1,false,z,true,true,0.0-2.0-0.32-0.293-3.293,0,0,0,68,false,stim,false,0,301.59999990463257,3,0,2,80509,WMM1,1412386,false,true,1018,image-keyboard-response,31
true,6,1,2,0,false,q,true,false,0.0-2.0-0.32-0.294-3.294,0,0,0,90,false,stim,false,2,516.9000000953674,3,0,0,80509,WMM1,1414419,false,false,1021,image-keyboard-response,32
true,6,1,2,2,false,d,false,false,0.0-2.0-0.32-0.295-3.295,0,0,0,90,false,stim,true,1,692.0,3,0,1,80509,WMM1,1416637,false,false,1024,image-keyboard-response,33
true,6,1,2,0,false,q,true,false,0.0-2.0-0.32-0.296-3.296,0,0,0,90,false,stim,false,2,365.69999980926514,3,0,0,80509,WMM1,1418527,false,false,1027,image-keyboard-response,34
true,6,2,2,0,false,q,false,false,0.0-2.0-0.33-0.297-3.297,0,0,0,68,false,stim,true,2,832.4000000953674,3,0,0,80509,WMM1,1420871,false,false,1030,image-keyboard-response,35
true,6,2,2,1,false,z,true,false,0.0-2.0-0.33-0.298-3.298,0,0,0,68,false,stim,false,0,877.5,3,0,2,80509,WMM1,1423265,false,false,1033,image-keyboard-response,36
true,6,0,2,2,false,d,true,false,0.0-2.0-0.33-0.299-3.299,0,0,0,81,false,stim,false,1,1147.3000001907349,3,0,1,80509,WMM1,1425937,false,false,1036,image-keyboard-response,37
true,6,0,2,2,false,d,true,false,0.0-2.0-0.33-0.300-3.300,0,0,0,81,false,stim,false,1,565.2999999523163,3,0,1,80509,WMM1,1428014,false,false,1039,image-keyboard-response,38
true,6,0,2,0,true,q,false,true,0.0-2.0-0.33-0.301-3.301,0,0,0,81,false,stim,false,2,738.5,3,0,0,80509,WMM1,1430264,false,false,1042,image-keyboard-response,39
true,6,1,2,1,true,z,false,true,0.0-2.0-0.33-0.302-3.302,0,0,0,90,false,stim,false,0,971.6999998092651,3,0,2,80509,WMM1,1432765,false,false,1045,image-keyboard-response,40
true,6,1,2,2,false,d,false,false,0.0-2.0-0.33-0.303-3.303,0,0,0,90,false,stim,true,1,863.7999999523163,3,0,1,80509,WMM1,1435156,false,false,1048,image-keyboard-response,41
true,6,2,2,1,false,z,true,false,0.0-2.0-0.33-0.304-3.304,0,0,0,68,false,stim,false,0,1130.0999999046326,3,0,2,80509,WMM1,1437814,false,false,1051,image-keyboard-response,42
true,6,1,2,0,false,q,true,false,0.0-2.0-0.33-0.305-3.305,0,0,0,90,false,stim,false,2,891.7999999523163,3,0,0,80509,WMM1,1440229,false,false,1054,image-keyboard-response,43
true,6,1,2,2,false,d,false,false,0.0-2.0-0.34-0.306-3.306,0,0,0,90,false,stim,true,1,372.5,3,0,1,80509,WMM1,1442125,false,false,1057,image-keyboard-response,44
true,6,1,2,2,false,d,false,false,0.0-2.0-0.34-0.307-3.307,0,0,0,90,false,stim,true,1,1693.5,3,0,1,80509,WMM1,1445348,false,false,1060,image-keyboard-response,45
true,6,2,2,2,true,d,false,true,0.0-2.0-0.34-0.308-3.308,0,0,0,68,false,stim,false,1,334.60000014305115,3,0,1,80509,WMM1,1447208,false,false,1063,image-keyboard-response,46
true,6,2,2,0,false,q,false,false,0.0-2.0-0.34-0.309-3.309,0,0,0,68,false,stim,true,2,513.6999998092651,3,0,0,80509,WMM1,1449250,false,false,1066,image-keyboard-response,47
true,6,1,2,1,true,z,false,false,0.0-2.0-0.34-0.310-3.310,0,0,0,90,false,stim,false,0,798.2999999523163,3,0,2,80509,WMM1,1451577,false,true,1069,image-keyboard-response,48
true,6,2,2,0,false,q,false,false,0.0-2.0-0.34-0.311-3.311,0,0,0,68,false,stim,true,2,873.1000001430511,3,0,0,80509,WMM1,1453973,false,false,1072,image-keyboard-response,49
true,6,0,2,1,false,z,false,false,0.0-2.0-0.34-0.312-3.312,0,0,0,81,false,stim,true,0,601.0,3,0,2,80509,WMM1,1456099,false,false,1075,image-keyboard-response,50
true,6,1,2,0,false,q,true,false,0.0-2.0-0.34-0.313-3.313,0,0,0,90,false,stim,false,2,774.0,3,0,0,80509,WMM1,1458401,false,false,1078,image-keyboard-response,51
true,6,1,2,1,true,z,false,true,0.0-2.0-0.34-0.314-3.314,0,0,0,90,false,stim,false,0,526.3999998569489,3,1,2,80509,WMM1,1460455,false,false,1081,image-keyboard-response,52
true,6,1,2,2,false,d,false,false,0.0-2.0-0.35-0.315-3.315,0,0,0,90,false,stim,true,1,527.3000001907349,3,0,1,80509,WMM1,1462508,false,false,1084,image-keyboard-response,53
true,6,1,2,0,false,q,true,false,0.0-2.0-0.35-0.316-3.316,0,0,0,90,false,stim,false,2,629.8999998569489,3,0,0,80509,WMM1,1464652,false,false,1087,image-keyboard-response,54
true,6,1,2,2,false,d,false,false,0.0-2.0-0.35-0.317-3.317,0,0,0,90,false,stim,true,1,393.2000000476837,3,0,1,80509,WMM1,1466553,false,false,1090,image-keyboard-response,55
true,6,2,2,0,false,q,false,true,0.0-2.0-0.35-0.318-3.318,0,0,0,68,false,stim,true,2,443.60000014305115,3,0,0,80509,WMM1,1468514,false,true,1093,image-keyboard-response,56
true,6,1,2,2,false,d,false,false,0.0-2.0-0.35-0.319-3.319,0,0,0,90,false,stim,true,1,478.39999985694885,3,0,1,80509,WMM1,1470508,false,false,1096,image-keyboard-response,57
true,6,2,2,0,false,q,false,false,0.0-2.0-0.35-0.320-3.320,0,0,0,68,false,stim,true,2,189.90000009536743,3,0,0,80509,WMM1,1472221,false,false,1099,image-keyboard-response,58
true,6,2,2,1,false,z,true,false,0.0-2.0-0.35-0.321-3.321,0,0,0,68,false,stim,false,0,526.7999999523163,3,1,2,80509,WMM1,1474286,false,false,1102,image-keyboard-response,59
true,6,2,2,1,false,z,true,false,0.0-2.0-0.35-0.322-3.322,0,0,0,68,false,stim,false,0,469.10000014305115,3,1,2,80509,WMM1,1476287,false,false,1105,image-keyboard-response,60
true,7,1,3,1,true,z,false,true,0.0-2.0-0.35-0.323-3.323,0,0,1,90,true,stim,false,1,292.7000000476837,3,1,2,80509,WMM1,1478099,false,false,1108,image-keyboard-response,1
true,7,1,3,1,true,z,false,true,0.0-2.0-0.36-0.324-3.324,0,0,1,90,false,stim,false,1,1203.1000001430511,3,1,2,80509,WMM1,1480839,false,false,1111,image-keyboard-response,2
true,7,1,3,1,true,z,false,true,0.0-2.0-0.36-0.325-3.325,0,0,1,90,false,stim,false,0,246.09999990463257,3,0,0,80509,WMM1,1482596,false,false,1114,image-keyboard-response,3
true,7,1,3,0,false,q,true,false,0.0-2.0-0.36-0.326-3.326,0,0,1,90,false,stim,false,2,644.3999998569489,3,0,1,80509,WMM1,1484760,false,false,1117,image-keyboard-response,4
true,7,1,3,1,true,z,false,true,0.0-2.0-0.36-0.327-3.327,0,0,1,90,false,stim,false,1,1753.5,3,1,2,80509,WMM1,1488034,false,false,1120,image-keyboard-response,5
true,7,2,3,0,false,q,false,false,0.0-2.0-0.36-0.328-3.328,0,0,1,68,false,stim,true,2,337.2000000476837,3,0,1,80509,WMM1,1489885,false,false,1123,image-keyboard-response,6
true,7,2,3,0,false,q,false,false,0.0-2.0-0.36-0.329-3.329,0,0,1,68,false,stim,true,2,1179.7000000476837,3,0,1,80509,WMM1,1492587,false,false,1126,image-keyboard-response,7
true,7,2,3,1,false,z,true,false,0.0-2.0-0.36-0.330-3.330,0,0,1,68,false,stim,false,1,543.5999999046326,3,1,2,80509,WMM1,1494644,false,false,1129,image-keyboard-response,8
true,7,1,3,1,true,z,false,false,0.0-2.0-0.36-0.331-3.331,0,0,1,90,false,stim,false,0,476.2000000476837,3,0,0,80509,WMM1,1496637,false,true,1132,image-keyboard-response,9
true,7,1,3,1,true,z,false,true,0.0-2.0-0.36-0.332-3.332,0,0,1,90,false,stim,false,0,750.0,3,0,0,80509,WMM1,1498905,false,false,1135,image-keyboard-response,10
true,7,2,3,1,false,z,true,false,0.0-2.0-0.37-0.333-3.333,0,0,1,68,false,stim,false,1,732.7000000476837,3,1,2,80509,WMM1,1501152,false,false,1138,image-keyboard-response,11
true,7,1,3,1,true,z,false,true,0.0-2.0-0.37-0.334-3.334,0,0,1,90,false,stim,false,1,456.40000009536743,3,1,2,80509,WMM1,1503128,false,false,1141,image-keyboard-response,12
true,7,1,3,1,true,z,false,true,0.0-2.0-0.37-0.335-3.335,0,0,1,90,false,stim,false,0,271.10000014305115,3,0,0,80509,WMM1,1504909,false,false,1144,image-keyboard-response,13
true,7,1,3,1,true,z,false,true,0.0-2.0-0.37-0.336-3.336,0,0,1,90,false,stim,false,0,907.0,3,0,0,80509,WMM1,1507351,false,false,1147,image-keyboard-response,14
true,7,1,3,1,true,z,false,true,0.0-2.0-0.37-0.337-3.337,0,0,1,90,false,stim,false,1,153.20000004768372,3,1,2,80509,WMM1,1509027,false,false,1150,image-keyboard-response,15
true,7,1,3,0,false,q,true,false,0.0-2.0-0.37-0.338-3.338,0,0,1,90,false,stim,false,2,563.6000001430511,3,0,1,80509,WMM1,1511104,false,false,1153,image-keyboard-response,16
true,7,2,3,0,false,q,false,false,0.0-2.0-0.37-0.339-3.339,0,0,1,68,false,stim,true,2,806.4000000953674,3,0,1,80509,WMM1,1513423,false,false,1156,image-keyboard-response,17
true,7,1,3,1,true,z,false,true,0.0-2.0-0.37-0.340-3.340,0,0,1,90,false,stim,false,0,1279.5999999046326,3,0,0,80509,WMM1,1516215,false,false,1159,image-keyboard-response,18
true,7,1,3,0,false,q,true,false,0.0-2.0-0.37-0.341-3.341,0,0,1,90,false,stim,false,2,1618.5999999046326,3,0,1,80509,WMM1,1519344,false,false,1162,image-keyboard-response,19
true,7,1,3,0,false,q,true,false,0.0-2.0-0.38-0.342-3.342,0,0,1,90,false,stim,false,2,1189.0999999046326,3,0,1,80509,WMM1,1522051,false,false,1165,image-keyboard-response,20
true,7,2,3,0,false,q,false,false,0.0-2.0-0.38-0.343-3.343,0,0,1,68,false,stim,true,2,653.0999999046326,3,0,1,80509,WMM1,1524226,false,false,1168,image-keyboard-response,21
true,7,1,3,1,true,z,false,true,0.0-2.0-0.38-0.344-3.344,0,0,1,90,false,stim,false,0,1334.7000000476837,3,0,0,80509,WMM1,1527086,false,false,1171,image-keyboard-response,22
true,7,1,3,1,true,z,false,true,0.0-2.0-0.38-0.345-3.345,0,0,1,90,false,stim,false,1,1514.7999999523163,3,1,2,80509,WMM1,1530133,false,false,1174,image-keyboard-response,23
true,7,0,3,1,false,z,false,true,0.0-2.0-0.38-0.346-3.346,0,0,1,81,false,stim,true,0,422.19999980926514,3,0,0,80509,WMM1,1532074,false,true,1177,image-keyboard-response,24
true,7,1,3,0,false,q,true,false,0.0-2.0-0.38-0.347-3.347,0,0,1,90,false,stim,false,2,1876.7000000476837,3,0,1,80509,WMM1,1535472,false,false,1180,image-keyboard-response,25
true,7,1,3,1,true,z,false,true,0.0-2.0-0.38-0.348-3.348,0,0,1,90,false,stim,false,1,243.19999980926514,3,1,2,80509,WMM1,1537246,false,false,1183,image-keyboard-response,26
true,7,1,3,1,true,z,false,true,0.0-2.0-0.38-0.349-3.349,0,0,1,90,false,stim,false,1,825.9000000953674,3,1,2,80509,WMM1,1539591,false,false,1186,image-keyboard-response,27
true,7,1,3,1,true,z,false,true,0.0-2.0-0.38-0.350-3.350,0,0,1,90,false,stim,false,0,1571.1000001430511,3,0,0,80509,WMM1,1542679,false,false,1189,image-keyboard-response,28
true,7,1,3,1,true,z,false,true,0.0-2.0-0.39-0.351-3.351,0,0,1,90,false,stim,false,1,682.9000000953674,3,1,2,80509,WMM1,1544891,false,false,1192,image-keyboard-response,29
true,7,2,3,0,false,q,false,false,0.0-2.0-0.39-0.352-3.352,0,0,1,68,false,stim,true,2,429.0,3,0,1,80509,WMM1,1546837,false,false,1195,image-keyboard-response,30
true,7,1,3,1,true,z,false,true,0.0-2.0-0.39-0.353-3.353,0,0,1,90,false,stim,false,1,432.7999999523163,3,1,2,80509,WMM1,1548795,false,false,1198,image-keyboard-response,31
true,7,0,3,0,true,q,false,true,0.0-2.0-0.39-0.354-3.354,0,0,1,81,false,stim,false,2,387.09999990463257,3,0,1,80509,WMM1,1550718,false,false,1201,image-keyboard-response,32
true,7,1,3,0,false,q,true,false,0.0-2.0-0.39-0.355-3.355,0,0,1,90,false,stim,false,2,652.2000000476837,3,0,1,80509,WMM1,1552896,false,false,1204,image-keyboard-response,33
true,7,2,3,1,false,z,true,false,0.0-2.0-0.39-0.356-3.356,0,0,1,68,false,stim,false,0,342.5,3,0,0,80509,WMM1,1554754,false,false,1207,image-keyboard-response,34
true,7,2,3,1,false,z,true,false,0.0-2.0-0.39-0.357-3.357,0,0,1,68,false,stim,false,0,599.7999999523163,3,0,0,80509,WMM1,1556882,false,false,1210,image-keyboard-response,35
true,7,1,3,1,true,z,false,true,0.0-2.0-0.39-0.358-3.358,0,0,1,90,false,stim,false,0,1011.7000000476837,3,0,0,80509,WMM1,1559405,false,false,1213,image-keyboard-response,36
true,7,1,3,1,true,z,false,true,0.0-2.0-0.39-0.359-3.359,0,0,1,90,false,stim,false,1,1782.7999999523163,3,1,2,80509,WMM1,1562715,false,false,1216,image-keyboard-response,37
true,7,1,3,1,true,z,false,true,0.0-2.0-0.40-0.360-3.360,0,0,1,90,false,stim,false,1,463.40000009536743,3,1,2,80509,WMM1,1564702,false,false,1219,image-keyboard-response,38
true,7,1,3,1,true,z,false,false,0.0-2.0-0.40-0.361-3.361,0,0,1,90,false,stim,false,0,773.7999999523163,3,0,0,80509,WMM1,1567001,false,true,1222,image-keyboard-response,39
true,7,1,3,0,false,q,true,false,0.0-2.0-0.40-0.362-3.362,0,0,1,90,false,stim,false,2,1313.0999999046326,3,0,1,80509,WMM1,1569830,false,false,1225,image-keyboard-response,40
true,7,2,3,0,false,q,false,false,0.0-2.0-0.40-0.363-3.363,0,0,1,68,false,stim,true,2,213.60000014305115,3,0,1,80509,WMM1,1571569,false,false,1228,image-keyboard-response,41
true,7,1,3,1,true,z,false,true,0.0-2.0-0.40-0.364-3.364,0,0,1,90,false,stim,false,0,614.7000000476837,3,0,0,80509,WMM1,1573719,false,false,1231,image-keyboard-response,42
true,7,1,3,1,true,z,false,true,0.0-2.0-0.40-0.365-3.365,0,0,1,90,false,stim,false,1,1625.0,3,1,2,80509,WMM1,1576866,false,false,1234,image-keyboard-response,43
true,7,1,3,0,false,q,true,false,0.0-2.0-0.40-0.366-3.366,0,0,1,90,false,stim,false,2,977.1000001430511,3,0,1,80509,WMM1,1579363,false,false,1237,image-keyboard-response,44
true,7,1,3,1,true,z,false,true,0.0-2.0-0.40-0.367-3.367,0,0,1,90,false,stim,false,1,1278.0,3,1,2,80509,WMM1,1582158,false,false,1240,image-keyboard-response,45
true,7,2,3,1,false,z,true,false,0.0-2.0-0.40-0.368-3.368,0,0,1,68,false,stim,false,0,796.2999999523163,3,0,0,80509,WMM1,1584477,false,false,1243,image-keyboard-response,46
true,7,1,3,1,true,z,false,true,0.0-2.0-0.41-0.369-3.369,0,0,1,90,false,stim,false,1,1167.9000000953674,3,1,2,80509,WMM1,1587159,false,false,1246,image-keyboard-response,47
true,7,2,3,0,false,q,false,false,0.0-2.0-0.41-0.370-3.370,0,0,1,68,false,stim,true,2,896.5,3,0,1,80509,WMM1,1589574,false,false,1249,image-keyboard-response,48
true,7,1,3,0,false,q,true,false,0.0-2.0-0.41-0.371-3.371,0,0,1,90,false,stim,false,2,793.5,3,0,1,80509,WMM1,1591896,false,false,1252,image-keyboard-response,49
false,7,-1,3,1,false,z,true,false,0.0-2.0-0.41-0.372-3.372,0,0,1,,false,stim,false,0,,3,0,0,80509,WMM1,1596439,false,false,1255,image-keyboard-response,50
true,7,2,3,1,false,z,true,false,0.0-2.0-0.41-0.373-3.373,0,0,1,68,false,stim,false,1,2818.4000000953674,3,0,2,80509,WMM1,1600776,false,false,1258,image-keyboard-response,51
true,7,1,3,1,true,z,false,true,0.0-2.0-0.41-0.374-3.374,0,0,1,90,false,stim,false,0,3.0,3,0,0,80509,WMM1,1602306,false,false,1261,image-keyboard-response,52
true,7,1,3,1,true,z,false,true,0.0-2.0-0.41-0.375-3.375,0,0,1,90,false,stim,false,1,394.09999990463257,3,0,2,80509,WMM1,1604223,false,false,1264,image-keyboard-response,53
true,7,1,3,0,false,q,true,false,0.0-2.0-0.41-0.376-3.376,0,0,1,90,false,stim,false,2,310.09999990463257,3,0,1,80509,WMM1,1606055,false,false,1267,image-keyboard-response,54
true,7,2,3,1,false,z,true,false,0.0-2.0-0.41-0.377-3.377,0,0,1,68,false,stim,false,0,556.5,3,0,0,80509,WMM1,1608134,false,false,1270,image-keyboard-response,55
true,7,2,3,0,false,q,false,false,0.0-2.0-0.42-0.378-3.378,0,0,1,68,false,stim,true,2,59.299999952316284,3,0,1,80509,WMM1,1609715,false,false,1273,image-keyboard-response,56
true,7,0,3,1,false,z,false,false,0.0-2.0-0.42-0.379-3.379,0,0,1,81,false,stim,true,0,875.5,3,0,0,80509,WMM1,1612113,false,false,1276,image-keyboard-response,57
true,7,1,3,1,true,z,false,true,0.0-2.0-0.42-0.380-3.380,0,0,1,90,false,stim,false,1,1013.0,3,0,2,80509,WMM1,1614638,false,false,1279,image-keyboard-response,58
true,7,1,3,1,true,z,false,true,0.0-2.0-0.42-0.381-3.381,0,0,1,90,false,stim,false,1,915.4000000953674,3,0,2,80509,WMM1,1617079,false,false,1282,image-keyboard-response,59
true,7,1,3,1,true,z,false,true,0.0-2.0-0.42-0.382-3.382,0,0,1,90,false,stim,false,0,605.7000000476837,3,0,0,80509,WMM1,1619194,false,false,1285,image-keyboard-response,60
true,8,1,1,2,false,d,false,false,0.0-2.0-0.42-0.383-3.383,0,0,0,90,true,stim,true,1,691.9000000953674,3,0,0,80509,WMM1,1621401,false,false,1288,image-keyboard-response,1
true,8,1,1,2,false,d,false,true,0.0-2.0-0.42-0.384-3.384,0,0,0,90,false,stim,true,1,365.60000014305115,3,0,2,80509,WMM1,1623288,false,true,1291,image-keyboard-response,2
true,8,1,1,1,true,z,false,true,0.0-2.0-0.42-0.385-3.385,0,0,0,90,false,stim,false,0,1140.0,3,0,1,80509,WMM1,1625954,false,false,1294,image-keyboard-response,3
true,8,1,1,1,true,z,false,true,0.0-2.0-0.42-0.386-3.386,0,0,0,90,false,stim,false,0,2343.2999999523163,3,0,1,80509,WMM1,1629816,false,false,1297,image-keyboard-response,4
true,8,1,1,1,true,z,false,true,0.0-2.0-0.43-0.387-3.387,0,0,0,90,false,stim,false,0,965.4000000953674,3,0,1,80509,WMM1,1632303,false,false,1300,image-keyboard-response,5
true,8,1,1,2,false,d,false,false,0.0-2.0-0.43-0.388-3.388,0,0,0,90,false,stim,true,1,1370.8999998569489,3,0,0,80509,WMM1,1635198,false,false,1303,image-keyboard-response,6
true,8,0,1,2,false,d,true,false,0.0-2.0-0.43-0.389-3.389,0,0,0,81,false,stim,false,1,396.5,3,0,2,80509,WMM1,1637118,false,false,1306,image-keyboard-response,7
true,8,1,1,1,true,z,false,true,0.0-2.0-0.43-0.390-3.390,0,0,0,90,false,stim,false,0,687.3999998569489,3,0,1,80509,WMM1,1639324,false,false,1309,image-keyboard-response,8
true,8,1,1,2,false,d,false,false,0.0-2.0-0.43-0.391-3.391,0,0,0,90,false,stim,true,1,269.59999990463257,3,0,2,80509,WMM1,1641115,false,false,1312,image-keyboard-response,9
true,8,2,1,2,true,d,false,true,0.0-2.0-0.43-0.392-3.392,0,0,0,68,false,stim,false,1,2414.0999999046326,3,0,0,80509,WMM1,1645060,false,false,1315,image-keyboard-response,10
true,8,0,1,2,false,d,true,false,0.0-2.0-0.43-0.393-3.393,0,0,0,81,false,stim,false,1,1556.2999999523163,3,0,2,80509,WMM1,1648134,false,false,1318,image-keyboard-response,11
true,8,0,1,2,false,d,true,false,0.0-2.0-0.43-0.394-3.394,0,0,0,81,false,stim,false,1,703.0,3,0,0,80509,WMM1,1650355,false,false,1321,image-keyboard-response,12
true,8,0,1,1,false,z,false,false,0.0-2.0-0.43-0.395-3.395,0,0,0,81,false,stim,true,0,515.5,3,0,1,80509,WMM1,1652383,false,false,1324,image-keyboard-response,13
true,8,0,1,1,false,z,false,false,0.0-2.0-0.44-0.396-3.396,0,0,0,81,false,stim,true,0,247.10000014305115,3,0,1,80509,WMM1,1654145,false,false,1327,image-keyboard-response,14
true,8,0,1,2,false,d,true,false,0.0-2.0-0.44-0.397-3.397,0,0,0,81,false,stim,false,1,1008.8000001907349,3,0,2,80509,WMM1,1656677,false,false,1330,image-keyboard-response,15
true,8,1,1,1,true,z,false,true,0.0-2.0-0.44-0.398-3.398,0,0,0,90,false,stim,false,0,270.7000000476837,3,0,1,80509,WMM1,1658467,false,false,1333,image-keyboard-response,16
true,8,1,1,2,false,d,false,false,0.0-2.0-0.44-0.399-3.399,0,0,0,90,false,stim,true,1,536.3000001907349,3,0,0,80509,WMM1,1660518,false,false,1336,image-keyboard-response,17
true,8,2,1,2,true,d,false,true,0.0-2.0-0.44-0.400-3.400,0,0,0,68,false,stim,false,1,614.7000000476837,3,0,2,80509,WMM1,1662650,false,false,1339,image-keyboard-response,18
true,8,1,1,2,false,d,false,false,0.0-2.0-0.44-0.401-3.401,0,0,0,90,false,stim,true,1,747.6999998092651,3,0,0,80509,WMM1,1664919,false,false,1342,image-keyboard-response,19
true,8,0,1,2,false,d,true,false,0.0-2.0-0.44-0.402-3.402,0,0,0,81,false,stim,false,1,245.39999985694885,3,0,0,80509,WMM1,1666685,false,false,1345,image-keyboard-response,20
true,8,1,1,2,false,d,false,false,0.0-2.0-0.44-0.403-3.403,0,0,0,90,false,stim,true,1,96.79999995231628,3,0,2,80509,WMM1,1668298,false,false,1348,image-keyboard-response,21
true,8,2,1,1,false,z,true,false,0.0-2.0-0.44-0.404-3.404,0,0,0,68,false,stim,false,0,631.2000000476837,3,0,1,80509,WMM1,1670454,false,false,1351,image-keyboard-response,22
true,8,0,1,2,false,d,true,true,0.0-2.0-0.45-0.405-3.405,0,0,0,81,false,stim,false,1,291.09999990463257,3,0,2,80509,WMM1,1672270,false,true,1354,image-keyboard-response,23
true,8,1,1,2,false,d,false,false,0.0-2.0-0.45-0.406-3.406,0,0,0,90,false,stim,true,1,277.39999985694885,3,0,0,80509,WMM1,1674064,false,false,1357,image-keyboard-response,24
true,8,0,1,2,false,d,true,false,0.0-2.0-0.45-0.407-3.407,0,0,0,81,false,stim,false,1,1254.8999998569489,3,0,0,80509,WMM1,1676841,false,false,1360,image-keyboard-response,25
true,8,1,1,1,true,z,false,true,0.0-2.0-0.45-0.408-3.408,0,0,0,90,false,stim,false,0,442.2000000476837,3,0,1,80509,WMM1,1678810,false,false,1363,image-keyboard-response,26
true,8,1,1,1,true,z,false,true,0.0-2.0-0.45-0.409-3.409,0,0,0,90,false,stim,false,0,79.59999990463257,3,0,1,80509,WMM1,1680407,false,false,1366,image-keyboard-response,27
true,8,1,1,2,false,d,false,false,0.0-2.0-0.45-0.410-3.410,0,0,0,90,false,stim,true,1,109.09999990463257,3,0,2,80509,WMM1,1682044,false,false,1369,image-keyboard-response,28
true,8,0,1,2,false,d,true,false,0.0-2.0-0.45-0.411-3.411,0,0,0,81,false,stim,false,1,308.09999990463257,3,0,2,80509,WMM1,1683881,false,false,1372,image-keyboard-response,29
true,8,0,1,1,false,z,false,false,0.0-2.0-0.45-0.412-3.412,0,0,0,81,false,stim,true,0,1279.3000001907349,3,0,1,80509,WMM1,1686679,false,false,1375,image-keyboard-response,30
true,8,1,1,2,false,d,false,true,0.0-2.0-0.45-0.413-3.413,0,0,0,90,false,stim,true,1,1818.0,3,0,0,80509,WMM1,1690026,false,true,1378,image-keyboard-response,31
true,8,1,1,1,true,z,false,true,0.0-2.0-0.46-0.414-3.414,0,0,0,90,false,stim,false,0,179.59999990463257,3,0,1,80509,WMM1,1691734,false,false,1381,image-keyboard-response,32
true,8,0,1,2,false,d,true,false,0.0-2.0-0.46-0.415-3.415,0,0,0,81,false,stim,false,1,119.5,3,0,2,80509,WMM1,1693392,false,false,1384,image-keyboard-response,33
true,8,0,1,1,false,z,false,false,0.0-2.0-0.46-0.416-3.416,0,0,0,81,false,stim,true,0,1252.2000000476837,3,0,1,80509,WMM1,1696162,false,false,1387,image-keyboard-response,34
true,8,1,1,2,false,d,false,false,0.0-2.0-0.46-0.417-3.417,0,0,0,90,false,stim,true,1,677.1000001430511,3,0,0,80509,WMM1,1698364,false,false,1390,image-keyboard-response,35
true,8,1,1,2,false,d,false,false,0.0-2.0-0.46-0.418-3.418,0,0,0,90,false,stim,true,1,733.3000001907349,3,0,0,80509,WMM1,1700620,false,false,1393,image-keyboard-response,36
true,8,1,1,2,false,d,false,false,0.0-2.0-0.46-0.419-3.419,0,0,0,90,false,stim,true,1,2780.899999856949,3,0,2,80509,WMM1,1704918,false,false,1396,image-keyboard-response,37
true,8,1,1,1,true,z,false,true,0.0-2.0-0.46-0.420-3.420,0,0,0,90,false,stim,false,0,532.7999999523163,3,0,1,80509,WMM1,1706971,false,false,1399,image-keyboard-response,38
true,8,1,1,2,false,d,false,false,0.0-2.0-0.46-0.421-3.421,0,0,0,90,false,stim,true,1,249.10000014305115,3,0,0,80509,WMM1,1708756,false,false,1402,image-keyboard-response,39
true,8,1,1,2,false,d,false,false,0.0-2.0-0.46-0.422-3.422,0,0,0,90,false,stim,true,1,2847.5999999046326,3,0,2,80509,WMM1,1713122,false,false,1405,image-keyboard-response,40
true,8,0,1,2,false,d,true,false,0.0-2.0-0.47-0.423-3.423,0,0,0,81,false,stim,false,1,526.3000001907349,3,0,0,80509,WMM1,1715164,false,false,1408,image-keyboard-response,41
false,8,-1,1,1,false,z,true,false,0.0-2.0-0.47-0.424-3.424,0,0,0,,false,stim,false,0,,3,0,1,80509,WMM1,1719695,false,false,1411,image-keyboard-response,42
true,8,1,1,1,true,z,false,true,0.0-2.0-0.47-0.425-3.425,0,0,0,90,false,stim,false,0,1237.5,3,0,1,80509,WMM1,1722446,false,false,1414,image-keyboard-response,43
true,8,0,1,2,false,d,true,false,0.0-2.0-0.47-0.426-3.426,0,0,0,81,false,stim,false,1,571.5,3,0,0,80509,WMM1,1724536,false,false,1417,image-keyboard-response,44
true,8,1,1,1,true,z,false,true,0.0-2.0-0.47-0.427-3.427,0,0,0,90,false,stim,false,0,735.4000000953674,3,0,1,80509,WMM1,1726802,false,false,1420,image-keyboard-response,45
true,8,1,1,2,false,d,false,false,0.0-2.0-0.47-0.428-3.428,0,0,0,90,false,stim,true,1,314.39999985694885,3,0,2,80509,WMM1,1728635,false,false,1423,image-keyboard-response,46
true,8,1,1,2,false,d,false,true,0.0-2.0-0.47-0.429-3.429,0,0,0,90,false,stim,true,1,443.09999990463257,3,0,2,80509,WMM1,1730606,false,true,1426,image-keyboard-response,47
true,8,1,1,2,false,d,false,false,0.0-2.0-0.47-0.430-3.430,0,0,0,90,false,stim,true,1,608.8999998569489,3,0,2,80509,WMM1,1732730,false,false,1429,image-keyboard-response,48
true,8,1,1,2,false,d,false,false,0.0-2.0-0.47-0.431-3.431,0,0,0,90,false,stim,true,1,225.40000009536743,3,0,0,80509,WMM1,1734479,false,false,1432,image-keyboard-response,49
true,8,2,1,2,true,d,false,true,0.0-2.0-0.48-0.432-3.432,0,0,0,68,false,stim,false,1,1557.5999999046326,3,0,0,80509,WMM1,1737561,false,false,1435,image-keyboard-response,50
true,8,0,1,2,false,d,true,false,0.0-2.0-0.48-0.433-3.433,0,0,0,81,false,stim,false,1,753.7999999523163,3,0,0,80509,WMM1,1739844,false,false,1438,image-keyboard-response,51
true,8,1,1,2,false,d,false,false,0.0-2.0-0.48-0.434-3.434,0,0,0,90,false,stim,true,1,1196.7999999523163,3,0,2,80509,WMM1,1742559,false,false,1441,image-keyboard-response,52
true,8,2,1,1,false,z,true,false,0.0-2.0-0.48-0.435-3.435,0,0,0,68,false,stim,false,0,326.10000014305115,3,0,1,80509,WMM1,1744423,false,false,1444,image-keyboard-response,53
true,8,0,1,2,false,d,true,false,0.0-2.0-0.48-0.436-3.436,0,0,0,81,false,stim,false,1,275.40000009536743,3,0,0,80509,WMM1,1746219,false,false,1447,image-keyboard-response,54
true,8,2,1,1,false,z,true,false,0.0-2.0-0.48-0.437-3.437,0,0,0,68,false,stim,false,0,1518.7000000476837,3,0,1,80509,WMM1,1749253,false,false,1450,image-keyboard-response,55
true,8,2,1,1,false,z,true,true,0.0-2.0-0.48-0.438-3.438,0,0,0,68,false,stim,false,0,1140.4000000953674,3,0,1,80509,WMM1,1751907,false,true,1453,image-keyboard-response,56
true,8,2,1,2,true,d,false,true,0.0-2.0-0.48-0.439-3.439,0,0,0,68,false,stim,false,1,1277.6000001430511,3,0,2,80509,WMM1,1754703,false,false,1456,image-keyboard-response,57
true,8,2,1,2,true,d,false,false,0.0-2.0-0.48-0.440-3.440,0,0,0,68,false,stim,false,1,2094.5,3,0,2,80509,WMM1,1758311,false,true,1459,image-keyboard-response,58
true,8,2,1,1,false,z,true,true,0.0-2.0-0.49-0.441-3.441,0,0,0,68,false,stim,false,0,498.60000014305115,3,0,1,80509,WMM1,1760325,false,true,1462,image-keyboard-response,59
true,8,0,1,2,false,d,true,false,0.0-2.0-0.49-0.442-3.442,0,0,0,81,false,stim,false,1,319.09999990463257,3,0,2,80509,WMM1,1762153,false,false,1465,image-keyboard-response,60
true,9,0,2,0,true,q,false,true,0.0-2.0-0.49-0.443-3.443,0,0,0,81,true,stim,false,2,818.5,3,0,0,80509,WMM1,1764489,false,false,1468,image-keyboard-response,1
true,9,2,2,0,false,q,false,false,0.0-2.0-0.49-0.444-3.444,0,0,0,68,false,stim,true,2,747.5999999046326,3,0,0,80509,WMM1,1766747,false,false,1471,image-keyboard-response,2
true,9,0,2,2,false,d,true,false,0.0-2.0-0.49-0.445-3.445,0,0,0,81,false,stim,false,1,233.5,3,0,1,80509,WMM1,1768498,false,false,1474,image-keyboard-response,3
true,9,0,2,1,false,z,true,false,0.0-2.0-0.49-0.446-3.446,0,0,0,81,false,stim,false,2,379.7000000476837,3,0,2,80509,WMM1,1770401,false,false,1477,image-keyboard-response,4
true,9,1,2,1,true,z,false,true,0.0-2.0-0.49-0.447-3.447,0,0,0,90,false,stim,false,2,1292.7000000476837,3,0,2,80509,WMM1,1773226,false,false,1480,image-keyboard-response,5
true,9,0,2,0,true,q,false,true,0.0-2.0-0.49-0.448-3.448,0,0,0,81,false,stim,false,2,2675.0999999046326,3,0,0,80509,WMM1,1777415,false,false,1483,image-keyboard-response,6
true,9,1,2,2,false,d,false,false,0.0-2.0-0.49-0.449-3.449,0,0,0,90,false,stim,true,1,1388.0,3,0,1,80509,WMM1,1780313,false,false,1486,image-keyboard-response,7
true,9,0,2,2,false,d,true,false,0.0-2.0-0.50-0.450-3.450,0,0,0,81,false,stim,false,1,1802.4000000953674,3,0,1,80509,WMM1,1783626,false,false,1489,image-keyboard-response,8
true,9,1,2,1,true,z,false,true,0.0-2.0-0.50-0.451-3.451,0,0,0,90,false,stim,false,2,477.2999999523163,3,0,2,80509,WMM1,1785622,false,false,1492,image-keyboard-response,9
true,9,1,2,0,false,q,true,false,0.0-2.0-0.50-0.452-3.452,0,0,0,90,false,stim,false,2,832.7999999523163,3,0,0,80509,WMM1,1787989,false,false,1495,image-keyboard-response,10
true,9,2,2,0,false,q,false,false,0.0-2.0-0.50-0.453-3.453,0,0,0,68,false,stim,true,2,381.5,3,0,0,80509,WMM1,1789881,false,false,1498,image-keyboard-response,11
true,9,0,2,2,false,d,true,false,0.0-2.0-0.50-0.454-3.454,0,0,0,81,false,stim,false,1,523.5999999046326,3,0,1,80509,WMM1,1791940,false,false,1501,image-keyboard-response,12
true,9,0,2,0,true,q,false,true,0.0-2.0-0.50-0.455-3.455,0,0,0,81,false,stim,false,2,198.90000009536743,3,0,0,80509,WMM1,1793660,false,false,1504,image-keyboard-response,13
true,9,2,2,1,false,z,false,false,0.0-2.0-0.50-0.456-3.456,0,0,0,68,false,stim,true,2,1024.4000000953674,3,0,2,80509,WMM1,1796205,false,false,1507,image-keyboard-response,14
true,9,1,2,1,true,z,false,false,0.0-2.0-0.50-0.457-3.457,0,0,0,90,false,stim,false,2,703.2000000476837,3,0,2,80509,WMM1,1798435,false,true,1510,image-keyboard-response,15
true,9,1,2,2,false,d,false,false,0.0-2.0-0.50-0.458-3.458,0,0,0,90,false,stim,true,1,497.90000009536743,3,0,1,80509,WMM1,1800460,false,false,1513,image-keyboard-response,16
true,9,1,2,2,false,d,false,false,0.0-2.0-0.51-0.459-3.459,0,0,0,90,false,stim,true,1,1090.1000001430511,3,0,1,80509,WMM1,1803087,false,false,1516,image-keyboard-response,17
true,9,2,2,0,false,q,false,false,0.0-2.0-0.51-0.460-3.460,0,0,0,68,false,stim,true,2,661.1000001430511,3,0,0,80509,WMM1,1805275,false,false,1519,image-keyboard-response,18
true,9,0,2,2,false,d,true,false,0.0-2.0-0.51-0.461-3.461,0,0,0,81,false,stim,false,1,944.6000001430511,3,0,1,80509,WMM1,1807752,false,false,1522,image-keyboard-response,19
true,9,1,2,1,true,z,false,true,0.0-2.0-0.51-0.462-3.462,0,0,0,90,false,stim,false,2,1347.1999998092651,3,0,2,80509,WMM1,1810614,false,false,1525,image-keyboard-response,20
true,9,1,2,1,true,z,false,true,0.0-2.0-0.51-0.463-3.463,0,0,0,90,false,stim,false,2,923.2999999523163,3,0,2,80509,WMM1,1813060,false,false,1528,image-keyboard-response,21
true,9,1,2,1,true,z,false,true,0.0-2.0-0.51-0.464-3.464,0,0,0,90,false,stim,false,2,734.3999998569489,3,0,2,80509,WMM1,1815327,false,false,1531,image-keyboard-response,22
true,9,1,2,0,false,q,true,false,0.0-2.0-0.51-0.465-3.465,0,0,0,90,false,stim,false,2,569.1999998092651,3,0,0,80509,WMM1,1817428,false,false,1534,image-keyboard-response,23
true,9,2,2,0,false,q,false,true,0.0-2.0-0.51-0.466-3.466,0,0,0,68,false,stim,true,2,218.79999995231628,3,0,0,80509,WMM1,1819167,false,true,1537,image-keyboard-response,24
true,9,2,2,2,true,d,false,true,0.0-2.0-0.51-0.467-3.467,0,0,0,68,false,stim,false,1,1052.2000000476837,3,0,1,80509,WMM1,1821751,false,false,1540,image-keyboard-response,25
true,9,2,2,1,false,z,false,false,0.0-2.0-0.52-0.468-3.468,0,0,0,68,false,stim,true,2,307.10000014305115,3,0,2,80509,WMM1,1823590,false,false,1543,image-keyboard-response,26
true,9,2,2,0,false,q,false,true,0.0-2.0-0.52-0.469-3.469,0,0,0,68,false,stim,true,2,1564.2999999523163,3,0,0,80509,WMM1,1826677,false,true,1546,image-keyboard-response,27
true,9,1,2,2,false,d,false,false,0.0-2.0-0.52-0.470-3.470,0,0,0,90,false,stim,true,1,2800.899999856949,3,0,1,80509,WMM1,1831000,false,false,1549,image-keyboard-response,28
true,9,1,2,1,true,z,false,true,0.0-2.0-0.52-0.471-3.471,0,0,0,90,false,stim,false,2,788.6000001430511,3,0,2,80509,WMM1,1833301,false,false,1552,image-keyboard-response,29
true,9,2,2,0,false,q,false,false,0.0-2.0-0.52-0.472-3.472,0,0,0,68,false,stim,true,2,301.5,3,0,0,80509,WMM1,1835123,false,false,1555,image-keyboard-response,30
true,9,0,2,2,false,d,true,false,0.0-2.0-0.52-0.473-3.473,0,0,0,81,false,stim,false,1,570.1000001430511,3,0,1,80509,WMM1,1837213,false,false,1558,image-keyboard-response,31
true,9,2,2,1,false,z,false,false,0.0-2.0-0.52-0.474-3.474,0,0,0,68,false,stim,true,2,537.4000000953674,3,0,2,80509,WMM1,1839272,false,false,1561,image-keyboard-response,32
true,9,0,2,0,true,q,false,true,0.0-2.0-0.52-0.475-3.475,0,0,0,81,false,stim,false,2,462.19999980926514,3,0,0,80509,WMM1,1841264,false,false,1564,image-keyboard-response,33
true,9,0,2,2,false,d,true,false,0.0-2.0-0.52-0.476-3.476,0,0,0,81,false,stim,false,1,999.7000000476837,3,0,1,80509,WMM1,1843775,false,false,1567,image-keyboard-response,34
true,9,0,2,1,false,z,true,false,0.0-2.0-0.53-0.477-3.477,0,0,0,81,false,stim,false,2,1233.2999999523163,3,0,2,80509,WMM1,1846527,false,false,1570,image-keyboard-response,35
true,9,0,2,2,false,d,true,false,0.0-2.0-0.53-0.478-3.478,0,0,0,81,false,stim,false,1,1533.1000001430511,3,0,1,80509,WMM1,1849583,false,false,1573,image-keyboard-response,36
true,9,1,2,0,false,q,true,false,0.0-2.0-0.53-0.479-3.479,0,0,0,90,false,stim,false,2,333.90000009536743,3,0,0,80509,WMM1,1851447,false,false,1576,image-keyboard-response,37
true,9,1,2,2,false,d,false,false,0.0-2.0-0.53-0.480-3.480,0,0,0,90,false,stim,true,1,1174.6000001430511,3,0,1,80509,WMM1,1854142,false,false,1579,image-keyboard-response,38
true,9,1,2,0,false,q,true,false,0.0-2.0-0.53-0.481-3.481,0,0,0,90,false,stim,false,2,308.39999985694885,3,0,0,80509,WMM1,1855975,false,false,1582,image-keyboard-response,39
true,9,2,2,2,true,d,false,true,0.0-2.0-0.53-0.482-3.482,0,0,0,68,false,stim,false,1,93.5,3,0,1,80509,WMM1,1857592,false,false,1585,image-keyboard-response,40
true,9,1,2,1,true,z,false,true,0.0-2.0-0.53-0.483-3.483,0,0,0,90,false,stim,false,2,1290.1000001430511,3,0,2,80509,WMM1,1860398,false,false,1588,image-keyboard-response,41
true,9,0,2,1,false,z,true,false,0.0-2.0-0.53-0.484-3.484,0,0,0,81,false,stim,false,2,1649.9000000953674,3,0,2,80509,WMM1,1863572,false,false,1591,image-keyboard-response,42
true,9,2,2,0,false,q,false,false,0.0-2.0-0.53-0.485-3.485,0,0,0,68,false,stim,true,2,245.80000019073486,3,0,0,80509,WMM1,1865336,false,false,1594,image-keyboard-response,43
true,9,0,2,2,false,d,true,false,0.0-2.0-0.54-0.486-3.486,0,0,0,81,false,stim,false,1,976.0999999046326,3,0,1,80509,WMM1,1867835,false,false,1597,image-keyboard-response,44
true,9,1,2,0,false,q,true,false,0.0-2.0-0.54-0.487-3.487,0,0,0,90,false,stim,false,2,667.3000001907349,3,0,0,80509,WMM1,1870037,false,false,1600,image-keyboard-response,45
true,9,0,2,0,true,q,false,true,0.0-2.0-0.54-0.488-3.488,0,0,0,81,false,stim,false,2,680.7000000476837,3,0,0,80509,WMM1,1872247,false,false,1603,image-keyboard-response,46
true,9,0,2,2,false,d,true,false,0.0-2.0-0.54-0.489-3.489,0,0,0,81,false,stim,false,1,654.5,3,0,1,80509,WMM1,1874425,false,false,1606,image-keyboard-response,47
true,9,0,2,2,false,d,true,false,0.0-2.0-0.54-0.490-3.490,0,0,0,81,false,stim,false,1,334.40000009536743,3,0,1,80509,WMM1,1876284,false,false,1609,image-keyboard-response,48
true,9,0,2,0,true,q,false,true,0.0-2.0-0.54-0.491-3.491,0,0,0,81,false,stim,false,2,888.6000001430511,3,0,0,80509,WMM1,1878693,false,false,1612,image-keyboard-response,49
true,9,0,2,1,false,z,true,false,0.0-2.0-0.54-0.492-3.492,0,0,0,81,false,stim,false,2,713.5999999046326,3,0,2,80509,WMM1,1880940,false,false,1615,image-keyboard-response,50
true,9,0,2,1,false,z,true,false,0.0-2.0-0.54-0.493-3.493,0,0,0,81,false,stim,false,2,370.90000009536743,3,0,2,80509,WMM1,1882828,false,false,1618,image-keyboard-response,51
true,9,0,2,1,false,z,true,false,0.0-2.0-0.54-0.494-3.494,0,0,0,81,false,stim,false,2,461.0,3,0,2,80509,WMM1,1884814,false,false,1621,image-keyboard-response,52
true,9,1,2,2,false,d,false,false,0.0-2.0-0.55-0.495-3.495,0,0,0,90,false,stim,true,1,513.0,3,0,1,80509,WMM1,1886848,false,false,1624,image-keyboard-response,53
true,9,1,2,1,true,z,false,true,0.0-2.0-0.55-0.496-3.496,0,0,0,90,false,stim,false,2,348.2999999523163,3,0,2,80509,WMM1,1888711,false,false,1627,image-keyboard-response,54
true,9,1,2,1,true,z,false,true,0.0-2.0-0.55-0.497-3.497,0,0,0,90,false,stim,false,2,1890.4000000953674,3,0,2,80509,WMM1,1892123,false,false,1630,image-keyboard-response,55
true,9,2,2,2,true,d,false,true,0.0-2.0-0.55-0.498-3.498,0,0,0,68,false,stim,false,1,1136.8999998569489,3,0,1,80509,WMM1,1894779,false,false,1633,image-keyboard-response,56
true,9,1,2,0,false,q,true,false,0.0-2.0-0.55-0.499-3.499,0,0,0,90,false,stim,false,2,421.30000019073486,3,0,0,80509,WMM1,1896711,false,false,1636,image-keyboard-response,57
true,9,2,2,1,false,z,false,false,0.0-2.0-0.55-0.500-3.500,0,0,0,68,false,stim,true,2,1043.5999999046326,3,0,2,80509,WMM1,1899272,false,false,1639,image-keyboard-response,58
true,9,2,2,0,false,q,false,false,0.0-2.0-0.55-0.501-3.501,0,0,0,68,false,stim,true,2,265.0,3,0,0,80509,WMM1,1901061,false,false,1642,image-keyboard-response,59
true,9,0,2,0,true,q,false,false,0.0-2.0-0.55-0.502-3.502,0,0,0,81,false,stim,false,2,211.0,3,0,0,80509,WMM1,1902792,false,true,1645,image-keyboard-response,60
true,10,1,1,0,false,q,true,false,0.0-2.0-0.55-0.503-3.503,0,0,0,90,true,stim,false,2,214.90000009536743,3,0,1,80509,WMM1,1904523,false,false,1648,image-keyboard-response,1
true,10,2,1,0,false,q,false,true,0.0-2.0-0.56-0.504-3.504,0,0,0,68,false,stim,true,2,329.2999999523163,3,0,1,80509,WMM1,1906364,false,true,1651,image-keyboard-response,2
true,10,2,1,0,false,q,false,false,0.0-2.0-0.56-0.505-3.505,0,0,0,68,false,stim,true,2,317.7000000476837,3,0,1,80509,WMM1,1908202,false,false,1654,image-keyboard-response,3
true,10,2,1,0,false,q,true,true,0.0-2.0-0.56-0.506-3.506,0,0,0,68,false,stim,false,1,335.2999999523163,3,0,2,80509,WMM1,1910050,false,true,1657,image-keyboard-response,4
true,10,2,1,0,false,q,false,false,0.0-2.0-0.56-0.507-3.507,0,0,0,68,false,stim,true,2,337.5,3,0,1,80509,WMM1,1911911,false,false,1660,image-keyboard-response,5
true,10,2,1,0,false,q,true,false,0.0-2.0-0.56-0.508-3.508,0,0,0,68,false,stim,false,1,600.3999998569489,3,0,2,80509,WMM1,1914044,false,false,1663,image-keyboard-response,6
true,10,1,1,1,true,z,false,true,0.0-2.0-0.56-0.509-3.509,0,0,0,90,false,stim,false,0,551.2999999523163,3,0,0,80509,WMM1,1916114,false,false,1666,image-keyboard-response,7
true,10,2,1,0,false,q,true,false,0.0-2.0-0.56-0.510-3.510,0,0,0,68,false,stim,false,1,574.2000000476837,3,0,2,80509,WMM1,1918203,false,false,1669,image-keyboard-response,8
true,10,1,1,1,true,z,false,true,0.0-2.0-0.56-0.511-3.511,0,0,0,90,false,stim,false,0,1002.7999999523163,3,0,0,80509,WMM1,1920734,false,false,1672,image-keyboard-response,9
true,10,1,1,1,true,z,false,true,0.0-2.0-0.56-0.512-3.512,0,0,0,90,false,stim,false,0,356.0,3,0,0,80509,WMM1,1922617,false,false,1675,image-keyboard-response,10
true,10,2,1,0,false,q,false,false,0.0-2.0-0.57-0.513-3.513,0,0,0,68,false,stim,true,2,635.7999999523163,3,0,1,80509,WMM1,1924784,false,false,1678,image-keyboard-response,11
true,10,2,1,0,false,q,true,true,0.0-2.0-0.57-0.514-3.514,0,0,0,68,false,stim,false,1,364.0,3,0,2,80509,WMM1,1926672,false,true,1681,image-keyboard-response,12
true,10,1,1,0,false,q,true,false,0.0-2.0-0.57-0.515-3.515,0,0,0,90,false,stim,false,2,454.2999999523163,3,0,1,80509,WMM1,1928649,false,false,1684,image-keyboard-response,13
true,10,1,1,1,true,z,false,true,0.0-2.0-0.57-0.516-3.516,0,0,0,90,false,stim,false,0,521.6000001430511,3,0,0,80509,WMM1,1930685,false,false,1687,image-keyboard-response,14
true,10,1,1,1,true,z,false,true,0.0-2.0-0.57-0.517-3.517,0,0,0,90,false,stim,false,0,462.90000009536743,3,0,0,80509,WMM1,1932673,false,false,1690,image-keyboard-response,15
true,10,0,1,0,true,q,false,true,0.0-2.0-0.57-0.518-3.518,0,0,0,81,false,stim,false,2,671.7999999523163,3,0,1,80509,WMM1,1934858,false,false,1693,image-keyboard-response,16
true,10,1,1,0,false,q,false,false,0.0-2.0-0.57-0.519-3.519,0,0,0,90,false,stim,true,1,1063.4000000953674,3,0,2,80509,WMM1,1937444,false,false,1696,image-keyboard-response,17
true,10,1,1,1,true,z,false,true,0.0-2.0-0.57-0.520-3.520,0,0,0,90,false,stim,false,0,645.0,3,0,0,80509,WMM1,1939615,false,false,1699,image-keyboard-response,18
true,10,0,1,0,true,q,false,true,0.0-2.0-0.57-0.521-3.521,0,0,0,81,false,stim,false,1,831.7000000476837,3,0,2,80509,WMM1,1941966,false,false,1702,image-keyboard-response,19
true,10,1,1,1,true,z,false,true,0.0-2.0-0.58-0.522-3.522,0,0,0,90,false,stim,false,0,545.8999998569489,3,0,0,80509,WMM1,1944038,false,false,1705,image-keyboard-response,20
true,10,1,1,1,true,z,false,true,0.0-2.0-0.58-0.523-3.523,0,0,0,90,false,stim,false,0,490.10000014305115,3,0,0,80509,WMM1,1946066,false,false,1708,image-keyboard-response,21
true,10,0,1,0,true,q,false,true,0.0-2.0-0.58-0.524-3.524,0,0,0,81,false,stim,false,2,791.2999999523163,3,0,1,80509,WMM1,1948390,false,false,1711,image-keyboard-response,22
true,10,0,1,0,true,q,false,true,0.0-2.0-0.58-0.525-3.525,0,0,0,81,false,stim,false,2,621.4000000953674,3,0,1,80509,WMM1,1950528,false,false,1714,image-keyboard-response,23
true,10,2,1,0,false,q,true,false,0.0-2.0-0.58-0.526-3.526,0,0,0,68,false,stim,false,1,1094.0,3,0,2,80509,WMM1,1953143,false,false,1717,image-keyboard-response,24
true,10,0,1,0,true,q,false,true,0.0-2.0-0.58-0.527-3.527,0,0,0,81,false,stim,false,2,390.7999999523163,3,0,1,80509,WMM1,1955069,false,false,1720,image-keyboard-response,25
true,10,1,1,1,true,z,false,true,0.0-2.0-0.58-0.528-3.528,0,0,0,90,false,stim,false,0,1148.0,3,0,0,80509,WMM1,1957740,false,false,1723,image-keyboard-response,26
true,10,1,1,0,false,q,false,true,0.0-2.0-0.58-0.529-3.529,0,0,0,90,false,stim,true,1,1382.9000000953674,3,0,2,80509,WMM1,1960652,false,true,1726,image-keyboard-response,27
true,10,0,1,0,true,q,false,true,0.0-2.0-0.58-0.530-3.530,0,0,0,81,false,stim,false,1,632.5999999046326,3,0,2,80509,WMM1,1962817,false,false,1729,image-keyboard-response,28
true,10,0,1,1,false,z,false,false,0.0-2.0-0.59-0.531-3.531,0,0,0,81,false,stim,true,0,959.9000000953674,3,0,0,80509,WMM1,1965297,false,false,1732,image-keyboard-response,29
true,10,1,1,1,true,z,false,true,0.0-2.0-0.59-0.532-3.532,0,0,0,90,false,stim,false,0,299.40000009536743,3,0,0,80509,WMM1,1967121,false,false,1735,image-keyboard-response,30
true,10,1,1,0,false,q,true,false,0.0-2.0-0.59-0.533-3.533,0,0,0,90,false,stim,false,2,686.0999999046326,3,0,1,80509,WMM1,1969326,false,false,1738,image-keyboard-response,31
true,10,1,1,0,false,q,false,false,0.0-2.0-0.59-0.534-3.534,0,0,0,90,false,stim,true,1,239.90000009536743,3,0,2,80509,WMM1,1971086,false,false,1741,image-keyboard-response,32
true,10,0,1,1,false,z,false,true,0.0-2.0-0.59-0.535-3.535,0,0,0,81,false,stim,true,0,373.10000014305115,3,0,0,80509,WMM1,1972983,false,true,1744,image-keyboard-response,33
true,10,2,1,0,false,q,false,false,0.0-2.0-0.59-0.536-3.536,0,0,0,68,false,stim,true,2,601.7000000476837,3,0,1,80509,WMM1,1975111,false,false,1747,image-keyboard-response,34
true,10,1,1,0,false,q,false,false,0.0-2.0-0.59-0.537-3.537,0,0,0,90,false,stim,true,1,2633.2999999523163,3,0,2,80509,WMM1,1979268,false,false,1750,image-keyboard-response,35
true,10,0,1,0,true,q,false,true,0.0-2.0-0.59-0.538-3.538,0,0,0,81,false,stim,false,2,1398.3999998569489,3,0,1,80509,WMM1,1982196,false,false,1753,image-keyboard-response,36
true,10,2,1,0,false,q,true,false,0.0-2.0-0.59-0.539-3.539,0,0,0,68,false,stim,false,1,347.10000014305115,3,0,2,80509,WMM1,1984065,false,false,1756,image-keyboard-response,37
true,10,0,1,0,true,q,false,true,0.0-2.0-0.60-0.540-3.540,0,0,0,81,false,stim,false,2,1146.0,3,0,1,80509,WMM1,1986737,false,false,1759,image-keyboard-response,38
true,10,1,1,0,false,q,false,false,0.0-2.0-0.60-0.541-3.541,0,0,0,90,false,stim,true,1,1416.9000000953674,3,0,2,80509,WMM1,1989668,false,false,1762,image-keyboard-response,39
true,10,0,1,0,true,q,false,true,0.0-2.0-0.60-0.542-3.542,0,0,0,81,false,stim,false,2,861.5,3,0,1,80509,WMM1,1992049,false,false,1765,image-keyboard-response,40
true,10,0,1,0,true,q,false,true,0.0-2.0-0.60-0.543-3.543,0,0,0,81,false,stim,false,1,477.89999985694885,3,0,2,80509,WMM1,1994052,false,false,1768,image-keyboard-response,41
true,10,0,1,0,true,q,false,true,0.0-2.0-0.60-0.544-3.544,0,0,0,81,false,stim,false,2,373.7999999523163,3,0,1,80509,WMM1,1995955,false,false,1771,image-keyboard-response,42
true,10,0,1,0,true,q,false,true,0.0-2.0-0.60-0.545-3.545,0,0,0,81,false,stim,false,1,1842.2999999523163,3,0,2,80509,WMM1,1999323,false,false,1774,image-keyboard-response,43
true,10,0,1,1,false,z,false,false,0.0-2.0-0.60-0.546-3.546,0,0,0,81,false,stim,true,0,442.7000000476837,3,0,0,80509,WMM1,2001291,false,false,1777,image-keyboard-response,44
true,10,0,1,1,false,z,false,false,0.0-2.0-0.60-0.547-3.547,0,0,0,81,false,stim,true,0,1953.2000000476837,3,0,0,80509,WMM1,2004773,false,false,1780,image-keyboard-response,45
true,10,0,1,1,false,z,false,false,0.0-2.0-0.60-0.548-3.548,0,0,0,81,false,stim,true,0,803.2999999523163,3,0,0,80509,WMM1,2007091,false,false,1783,image-keyboard-response,46
true,10,0,1,1,false,z,false,false,0.0-2.0-0.61-0.549-3.549,0,0,0,81,false,stim,true,0,1548.5,3,0,0,80509,WMM1,2010156,false,false,1786,image-keyboard-response,47
true,10,0,1,0,true,q,false,true,0.0-2.0-0.61-0.550-3.550,0,0,0,81,false,stim,false,1,1047.4000000953674,3,0,2,80509,WMM1,2012728,false,false,1789,image-keyboard-response,48
true,10,0,1,0,true,q,false,true,0.0-2.0-0.61-0.551-3.551,0,0,0,81,false,stim,false,1,828.2999999523163,3,0,2,80509,WMM1,2015082,false,false,1792,image-keyboard-response,49
true,10,0,1,1,false,z,false,false,0.0-2.0-0.61-0.552-3.552,0,0,0,81,false,stim,true,0,2537.0999999046326,3,0,0,80509,WMM1,2019149,false,false,1795,image-keyboard-response,50
true,10,2,1,0,false,q,false,false,0.0-2.0-0.61-0.553-3.553,0,0,0,68,false,stim,true,2,298.0,3,0,1,80509,WMM1,2020984,false,false,1798,image-keyboard-response,51
true,10,1,1,0,false,q,true,false,0.0-2.0-0.61-0.554-3.554,0,0,0,90,false,stim,false,2,1938.6999998092651,3,0,1,80509,WMM1,2024459,false,false,1801,image-keyboard-response,52
true,10,2,1,0,false,q,true,false,0.0-2.0-0.61-0.555-3.555,0,0,0,68,false,stim,false,1,59.59999990463257,3,0,2,80509,WMM1,2026044,false,false,1804,image-keyboard-response,53
true,10,0,1,1,false,z,false,false,0.0-2.0-0.61-0.556-3.556,0,0,0,81,false,stim,true,0,630.6000001430511,3,0,0,80509,WMM1,2028201,false,false,1807,image-keyboard-response,54
true,10,2,1,0,false,q,false,true,0.0-2.0-0.61-0.557-3.557,0,0,0,68,false,stim,true,2,361.2999999523163,3,0,1,80509,WMM1,2030082,false,true,1810,image-keyboard-response,55
true,10,2,1,0,false,q,false,false,0.0-2.0-0.62-0.558-3.558,0,0,0,68,false,stim,true,2,623.0999999046326,3,0,1,80509,WMM1,2032232,false,false,1813,image-keyboard-response,56
true,10,2,1,0,false,q,true,false,0.0-2.0-0.62-0.559-3.559,0,0,0,68,false,stim,false,1,1035.5999999046326,3,0,2,80509,WMM1,2034808,false,false,1816,image-keyboard-response,57
true,10,2,1,0,false,q,true,false,0.0-2.0-0.62-0.560-3.560,0,0,0,68,false,stim,false,1,443.40000009536743,3,0,2,80509,WMM1,2036785,false,false,1819,image-keyboard-response,58
true,10,1,1,1,true,z,false,true,0.0-2.0-0.62-0.561-3.561,0,0,0,90,false,stim,false,0,861.0,3,0,0,80509,WMM1,2039164,false,false,1822,image-keyboard-response,59
true,10,1,1,1,true,z,false,true,0.0-2.0-0.62-0.562-3.562,0,0,0,90,false,stim,false,0,468.7999999523163,3,0,0,80509,WMM1,2041144,false,false,1825,image-keyboard-response,60
true,11,0,2,2,false,d,false,false,0.0-2.0-0.62-0.563-3.563,0,0,0,81,true,stim,true,0,468.7000000476837,3,0,1,80509,WMM1,2043138,false,false,1828,image-keyboard-response,1
true,11,2,2,1,false,z,true,false,0.0-2.0-0.62-0.564-3.564,0,0,0,68,false,stim,false,0,1057.3999998569489,3,0,2,80509,WMM1,2045716,false,false,1831,image-keyboard-response,2
true,11,1,2,2,false,d,true,false,0.0-2.0-0.62-0.565-3.565,0,0,0,90,false,stim,false,0,488.59999990463257,3,0,1,80509,WMM1,2047719,false,false,1834,image-keyboard-response,3
true,11,1,2,0,false,q,false,true,0.0-2.0-0.62-0.566-3.566,0,0,0,90,false,stim,true,1,506.69999980926514,3,0,0,80509,WMM1,2049741,false,true,1837,image-keyboard-response,4
true,11,0,2,2,false,d,false,false,0.0-2.0-0.63-0.567-3.567,0,0,0,81,false,stim,true,0,673.7000000476837,3,0,1,80509,WMM1,2051934,false,false,1840,image-keyboard-response,5
true,11,1,2,0,false,q,false,false,0.0-2.0-0.63-0.568-3.568,0,0,0,90,false,stim,true,1,689.4000000953674,3,0,0,80509,WMM1,2054150,false,false,1843,image-keyboard-response,6
true,11,1,2,0,false,q,false,false,0.0-2.0-0.63-0.569-3.569,0,0,0,90,false,stim,true,1,540.4000000953674,3,0,0,80509,WMM1,2056214,false,false,1846,image-keyboard-response,7
true,11,0,2,2,false,d,false,false,0.0-2.0-0.63-0.570-3.570,0,0,0,81,false,stim,true,0,310.2000000476837,3,0,1,80509,WMM1,2058039,false,false,1849,image-keyboard-response,8
true,11,0,2,0,true,q,false,true,0.0-2.0-0.63-0.571-3.571,0,0,0,81,false,stim,false,1,696.5999999046326,3,0,0,80509,WMM1,2060264,false,false,1852,image-keyboard-response,9
true,11,2,2,1,false,z,true,false,0.0-2.0-0.63-0.572-3.572,0,0,0,68,false,stim,false,0,735.0999999046326,3,0,2,80509,WMM1,2062511,false,false,1855,image-keyboard-response,10
true,11,1,2,1,true,z,false,true,0.0-2.0-0.63-0.573-3.573,0,0,0,90,false,stim,false,0,688.1000001430511,3,0,2,80509,WMM1,2064733,false,false,1858,image-keyboard-response,11
true,11,0,2,2,false,d,false,false,0.0-2.0-0.63-0.574-3.574,0,0,0,81,false,stim,true,0,711.2000000476837,3,0,1,80509,WMM1,2066956,false,false,1861,image-keyboard-response,12
true,11,2,2,1,false,z,true,false,0.0-2.0-0.63-0.575-3.575,0,0,0,68,false,stim,false,0,699.5999999046326,3,0,2,80509,WMM1,2069166,false,false,1864,image-keyboard-response,13
true,11,0,2,1,false,z,false,false,0.0-2.0-0.64-0.576-3.576,0,0,0,81,false,stim,true,0,1036.2000000476837,3,0,2,80509,WMM1,2071728,false,false,1867,image-keyboard-response,14
true,11,0,2,1,false,z,false,false,0.0-2.0-0.64-0.577-3.577,0,0,0,81,false,stim,true,0,411.60000014305115,3,0,2,80509,WMM1,2073650,false,false,1870,image-keyboard-response,15
true,11,0,2,2,false,d,false,false,0.0-2.0-0.64-0.578-3.578,0,0,0,81,false,stim,true,0,1416.3999998569489,3,0,1,80509,WMM1,2076589,false,false,1873,image-keyboard-response,16
true,11,0,2,0,true,q,false,true,0.0-2.0-0.64-0.579-3.579,0,0,0,81,false,stim,false,1,1516.7999999523163,3,0,0,80509,WMM1,2079619,false,false,1876,image-keyboard-response,17
true,11,0,2,2,false,d,false,false,0.0-2.0-0.64-0.580-3.580,0,0,0,81,false,stim,true,0,350.69999980926514,3,0,1,80509,WMM1,2081487,false,false,1879,image-keyboard-response,18
true,11,1,2,2,false,d,true,false,0.0-2.0-0.64-0.581-3.581,0,0,0,90,false,stim,false,0,662.2999999523163,3,0,1,80509,WMM1,2083667,false,false,1882,image-keyboard-response,19
true,11,2,2,0,false,q,true,false,0.0-2.0-0.64-0.582-3.582,0,0,0,68,false,stim,false,1,299.10000014305115,3,0,0,80509,WMM1,2085486,false,false,1885,image-keyboard-response,20
true,11,1,2,1,true,z,false,true,0.0-2.0-0.64-0.583-3.583,0,0,0,90,false,stim,false,0,753.0,3,0,2,80509,WMM1,2087767,false,false,1888,image-keyboard-response,21
true,11,1,2,0,false,q,false,false,0.0-2.0-0.64-0.584-3.584,0,0,0,90,false,stim,true,1,1040.0999999046326,3,0,0,80509,WMM1,2090325,false,false,1891,image-keyboard-response,22
true,11,0,2,1,false,z,false,false,0.0-2.0-0.65-0.585-3.585,0,0,0,81,false,stim,true,0,291.0,3,0,2,80509,WMM1,2092147,false,false,1894,image-keyboard-response,23
true,11,0,2,1,false,z,false,false,0.0-2.0-0.65-0.586-3.586,0,0,0,81,false,stim,true,0,390.39999985694885,3,0,2,80509,WMM1,2094062,false,false,1897,image-keyboard-response,24
true,11,0,2,0,true,q,false,true,0.0-2.0-0.65-0.587-3.587,0,0,0,81,false,stim,false,1,22.700000047683716,3,0,0,80509,WMM1,2095601,false,false,1900,image-keyboard-response,25
true,11,0,2,2,false,d,false,false,0.0-2.0-0.65-0.588-3.588,0,0,0,81,false,stim,true,0,901.5999999046326,3,0,1,80509,WMM1,2098041,false,false,1903,image-keyboard-response,26
true,11,1,2,2,false,d,true,false,0.0-2.0-0.65-0.589-3.589,0,0,0,90,false,stim,false,0,389.2000000476837,3,0,1,80509,WMM1,2099948,false,false,1906,image-keyboard-response,27
true,11,1,2,2,false,d,true,false,0.0-2.0-0.65-0.590-3.590,0,0,0,90,false,stim,false,0,859.8000001907349,3,0,1,80509,WMM1,2102330,false,false,1909,image-keyboard-response,28
