answered,blockNum,choice,condition,corResp,correct,correct_response,explo,fb,internal_node_id,isStable_1,isStable_2,isStable_3,key_press,newBlock,part,persev,persevResp,rt,sessNum,stableAS,stimulus,subject,task,time_elapsed,training,trap,trial_index,trial_type,trialsInBlock
true,1,1,0,0,false,q,true,false,0.0-2.0-0.0-0.0-3.0,0,0,0,90,true,stim,false,-1,693.5749999829568,0,0,0,81513,WMM2,114800,false,false,88,image-keyboard-response,1
true,1,2,0,1,false,z,true,false,0.0-2.0-0.0-0.1-3.1,0,0,0,68,false,stim,false,-1,536.2950000562705,0,0,2,81513,WMM2,116846,false,false,91,image-keyboard-response,2
true,1,1,0,1,true,z,false,true,0.0-2.0-0.0-0.2-3.2,0,0,0,90,false,stim,false,-1,1044.019999972079,0,0,2,81513,WMM2,119416,false,false,94,image-keyboard-response,3
true,1,0,0,0,true,q,false,true,0.0-2.0-0.0-0.3-3.3,0,0,0,81,false,stim,false,-1,891.8800000101328,0,0,0,81513,WMM2,122047,false,false,97,image-keyboard-response,4
true,1,1,0,2,false,d,true,false,0.0-2.0-0.0-0.4-3.4,0,0,0,90,false,stim,false,-1,872.8199999895878,0,0,1,81513,WMM2,124452,false,false,100,image-keyboard-response,5
true,1,1,0,1,true,z,false,true,0.0-2.0-0.0-0.5-3.5,0,0,0,90,false,stim,false,-1,951.6200000070967,0,0,2,81513,WMM2,126937,false,false,103,image-keyboard-response,6
true,1,2,0,2,true,d,false,true,0.0-2.0-0.0-0.6-3.6,0,0,0,68,false,stim,false,-1,815.9499999601394,0,0,1,81513,WMM2,129268,false,false,106,image-keyboard-response,7
true,1,2,0,2,true,d,false,true,0.0-2.0-0.0-0.7-3.7,0,0,0,68,false,stim,false,-1,457.5549999717623,0,0,1,81513,WMM2,131240,false,false,109,image-keyboard-response,8
true,1,0,0,0,true,q,false,true,0.0-2.0-0.0-0.8-3.8,0,0,0,81,false,stim,false,-1,472.3750000121072,0,0,0,81513,WMM2,133236,false,false,112,image-keyboard-response,9
true,1,1,0,1,true,z,false,true,0.0-2.0-0.1-0.9-3.9,0,0,0,90,false,stim,false,-1,414.45500002009794,0,0,2,81513,WMM2,135180,false,false,115,image-keyboard-response,10
true,1,1,0,1,true,z,false,true,0.0-2.0-0.1-0.10-3.10,0,0,0,90,false,stim,false,-1,526.1949999839999,0,0,2,81513,WMM2,137226,false,false,118,image-keyboard-response,11
true,1,1,0,1,true,z,false,true,0.0-2.0-0.1-0.11-3.11,0,0,0,90,false,stim,false,-1,462.30500005185604,0,0,2,81513,WMM2,139212,false,false,121,image-keyboard-response,12
true,1,0,0,0,true,q,false,true,0.0-2.0-0.1-0.12-3.12,0,0,0,81,false,stim,false,-1,455.454999988433,0,0,0,81513,WMM2,141190,false,false,124,image-keyboard-response,13
true,1,0,0,0,true,q,false,false,0.0-2.0-0.1-0.13-3.13,0,0,0,81,false,stim,false,-1,501.6300000133924,0,0,0,81513,WMM2,143222,false,true,127,image-keyboard-response,14
true,1,2,0,2,true,d,false,true,0.0-2.0-0.1-0.14-3.14,0,0,0,68,false,stim,false,-1,845.7800000323914,0,0,1,81513,WMM2,145597,false,false,130,image-keyboard-response,15
true,1,2,0,2,true,d,false,true,0.0-2.0-0.1-0.15-3.15,0,0,0,68,false,stim,false,-1,563.7749999877997,0,0,1,81513,WMM2,147689,false,false,133,image-keyboard-response,16
true,1,0,0,0,true,q,false,true,0.0-2.0-0.1-0.16-3.16,0,0,0,81,false,stim,false,-1,831.9849999970756,0,0,0,81513,WMM2,150050,false,false,136,image-keyboard-response,17
true,1,2,0,2,true,d,false,true,0.0-2.0-0.1-0.17-3.17,0,0,0,68,false,stim,false,-1,618.929999996908,0,0,1,81513,WMM2,152192,false,false,139,image-keyboard-response,18
true,1,1,0,1,true,z,false,true,0.0-2.0-0.2-0.18-3.18,0,0,0,90,false,stim,false,-1,516.330000013113,0,0,2,81513,WMM2,154232,false,false,142,image-keyboard-response,19
true,1,0,0,0,true,q,false,true,0.0-2.0-0.2-0.19-3.19,0,0,0,81,false,stim,false,-1,472.80499996850267,0,0,0,81513,WMM2,156223,false,false,145,image-keyboard-response,20
true,1,2,0,2,true,d,false,true,0.0-2.0-0.2-0.20-3.20,0,0,0,68,false,stim,false,-1,597.2300000139512,0,1,1,81513,WMM2,158347,false,false,148,image-keyboard-response,21
true,1,1,0,1,true,z,false,true,0.0-2.0-0.2-0.21-3.21,0,0,0,90,false,stim,false,-1,416.64000001037493,0,1,2,81513,WMM2,160291,false,false,151,image-keyboard-response,22
true,1,0,0,0,true,q,false,true,0.0-2.0-0.2-0.22-3.22,0,0,0,81,false,stim,false,-1,479.40000001108274,0,0,0,81513,WMM2,162288,false,false,154,image-keyboard-response,23
true,1,2,0,2,true,d,false,true,0.0-2.0-0.2-0.23-3.23,0,0,0,68,false,stim,false,-1,523.4700000146404,0,1,1,81513,WMM2,164343,false,false,157,image-keyboard-response,24
true,1,0,0,0,true,q,false,true,0.0-2.0-0.2-0.24-3.24,0,0,0,81,false,stim,false,-1,522.6450000191107,0,0,0,81513,WMM2,166388,false,false,160,image-keyboard-response,25
true,1,1,0,1,true,z,false,true,0.0-2.0-0.2-0.25-3.25,0,0,0,90,false,stim,false,-1,511.6000000271015,0,1,2,81513,WMM2,168428,false,false,163,image-keyboard-response,26
true,1,2,0,2,true,d,false,true,0.0-2.0-0.2-0.26-3.26,0,0,0,68,false,stim,false,-1,532.660000026226,0,1,1,81513,WMM2,170478,false,false,166,image-keyboard-response,27
true,1,1,0,1,true,z,false,true,0.0-2.0-0.3-0.27-3.27,0,0,0,90,false,stim,false,-1,404.5400000177324,0,1,2,81513,WMM2,172414,false,false,169,image-keyboard-response,28
true,1,2,0,2,true,d,false,true,0.0-2.0-0.3-0.28-3.28,0,0,0,68,false,stim,false,-1,649.3149999878369,0,1,1,81513,WMM2,174575,false,false,172,image-keyboard-response,29
true,1,0,0,0,true,q,false,true,0.0-2.0-0.3-0.29-3.29,0,0,0,81,false,stim,false,-1,443.58000002102926,0,0,0,81513,WMM2,176537,false,false,175,image-keyboard-response,30
true,2,0,2,2,false,d,false,false,0.0-2.0-0.3-0.30-3.30,0,1,1,81,true,stim,true,0,581.9550000014715,0,0,0,81513,WMM2,178636,false,false,178,image-keyboard-response,1
true,2,1,2,1,true,z,false,false,0.0-2.0-0.3-0.31-3.31,0,1,1,90,false,stim,false,1,500.7099999929778,0,1,2,81513,WMM2,180661,false,true,181,image-keyboard-response,2
true,2,0,2,2,false,d,false,false,0.0-2.0-0.3-0.32-3.32,0,1,1,81,false,stim,true,0,607.0299999555573,0,0,0,81513,WMM2,182779,false,false,184,image-keyboard-response,3
true,2,0,2,1,false,z,true,false,0.0-2.0-0.3-0.33-3.33,0,1,1,81,false,stim,false,1,787.0499999844469,0,1,2,81513,WMM2,185087,false,false,187,image-keyboard-response,4
true,2,2,2,2,true,d,false,true,0.0-2.0-0.3-0.34-3.34,0,1,1,68,false,stim,false,2,615.4250000254251,0,1,1,81513,WMM2,187225,false,false,190,image-keyboard-response,5
true,2,2,2,2,true,d,false,true,0.0-2.0-0.3-0.35-3.35,0,1,1,68,false,stim,false,2,745.8000000333413,0,1,1,81513,WMM2,189496,false,false,193,image-keyboard-response,6
true,2,1,2,2,false,d,true,false,0.0-2.0-0.4-0.36-3.36,0,1,1,90,false,stim,false,0,516.0100000211969,0,0,0,81513,WMM2,191541,false,false,196,image-keyboard-response,7
true,2,2,2,2,true,d,false,false,0.0-2.0-0.4-0.37-3.37,0,1,1,68,false,stim,false,2,697.5849999580532,0,1,1,81513,WMM2,193770,false,true,199,image-keyboard-response,8
true,2,1,2,1,true,z,false,true,0.0-2.0-0.4-0.38-3.38,0,1,1,90,false,stim,false,1,518.1549999979325,0,1,2,81513,WMM2,195813,false,false,202,image-keyboard-response,9
true,2,0,2,2,false,d,false,false,0.0-2.0-0.4-0.39-3.39,0,1,1,81,false,stim,true,0,419.1149999969639,0,0,0,81513,WMM2,197760,false,false,205,image-keyboard-response,10
true,2,1,2,2,false,d,true,false,0.0-2.0-0.4-0.40-3.40,0,1,1,90,false,stim,false,0,884.5599999767728,0,0,0,81513,WMM2,200155,false,false,208,image-keyboard-response,11
true,2,1,2,1,true,z,false,true,0.0-2.0-0.4-0.41-3.41,0,1,1,90,false,stim,false,1,842.304999998305,0,1,2,81513,WMM2,202521,false,false,211,image-keyboard-response,12
true,2,2,2,2,true,d,false,true,0.0-2.0-0.4-0.42-3.42,0,1,1,68,false,stim,false,2,1386.705000011716,0,1,1,81513,WMM2,205441,false,false,214,image-keyboard-response,13
true,2,1,2,1,true,z,false,true,0.0-2.0-0.4-0.43-3.43,0,1,1,90,false,stim,false,1,581.4900000113994,0,1,2,81513,WMM2,207553,false,false,217,image-keyboard-response,14
true,2,2,2,2,true,d,false,true,0.0-2.0-0.4-0.44-3.44,0,1,1,68,false,stim,false,2,615.1599999866448,0,1,1,81513,WMM2,209685,false,false,220,image-keyboard-response,15
true,2,2,2,2,true,d,false,true,0.0-2.0-0.5-0.45-3.45,0,1,1,68,false,stim,false,2,847.3600000143051,0,1,1,81513,WMM2,212042,false,false,223,image-keyboard-response,16
true,2,1,2,1,true,z,false,true,0.0-2.0-0.5-0.46-3.46,0,1,1,90,false,stim,false,1,579.8450000002049,0,1,2,81513,WMM2,214144,false,false,226,image-keyboard-response,17
true,2,2,2,2,true,d,false,true,0.0-2.0-0.5-0.47-3.47,0,1,1,68,false,stim,false,0,756.7350000026636,0,0,0,81513,WMM2,216511,false,false,229,image-keyboard-response,18
true,2,1,2,1,true,z,false,true,0.0-2.0-0.5-0.48-3.48,0,1,1,90,false,stim,false,1,724.1800000192598,0,1,2,81513,WMM2,218863,false,false,232,image-keyboard-response,19
true,2,2,2,2,true,d,false,true,0.0-2.0-0.5-0.49-3.49,0,1,1,68,false,stim,false,0,548.1649999856018,0,0,0,81513,WMM2,221050,false,false,235,image-keyboard-response,20
true,2,2,2,2,true,d,false,true,0.0-2.0-0.5-0.50-3.50,0,1,1,68,false,stim,false,2,551.7850000178441,0,1,1,81513,WMM2,223169,false,false,238,image-keyboard-response,21
true,2,1,2,2,false,d,true,false,0.0-2.0-0.5-0.51-3.51,0,1,1,90,false,stim,false,0,1011.655000038445,0,0,0,81513,WMM2,225708,false,false,241,image-keyboard-response,22
true,2,1,2,1,true,z,false,true,0.0-2.0-0.5-0.52-3.52,0,1,1,90,false,stim,false,1,580.7200000272132,0,1,2,81513,WMM2,227807,false,false,244,image-keyboard-response,23
true,2,2,2,2,true,d,false,true,0.0-2.0-0.5-0.53-3.53,0,1,1,68,false,stim,false,2,600.4000000539236,0,1,1,81513,WMM2,229926,false,false,247,image-keyboard-response,24
true,2,2,2,2,true,d,false,true,0.0-2.0-0.6-0.54-3.54,0,1,1,68,false,stim,false,0,595.4449999844655,0,0,0,81513,WMM2,232042,false,false,250,image-keyboard-response,25
true,2,1,2,1,true,z,false,true,0.0-2.0-0.6-0.55-3.55,0,1,1,90,false,stim,false,1,632.7150000142865,0,1,2,81513,WMM2,234203,false,false,253,image-keyboard-response,26
true,2,2,2,2,true,d,false,true,0.0-2.0-0.6-0.56-3.56,0,1,1,68,false,stim,false,0,479.6349999960512,0,0,0,81513,WMM2,236209,false,false,256,image-keyboard-response,27
true,2,2,2,2,true,d,false,false,0.0-2.0-0.6-0.57-3.57,0,1,1,68,false,stim,false,2,548.175000003539,0,1,1,81513,WMM2,238277,false,true,259,image-keyboard-response,28
true,2,1,2,1,true,z,false,false,0.0-2.0-0.6-0.58-3.58,0,1,1,90,false,stim,false,1,520.0099999783561,0,1,2,81513,WMM2,240315,false,true,262,image-keyboard-response,29
true,2,1,2,2,false,d,true,true,0.0-2.0-0.6-0.59-3.59,0,1,1,90,false,stim,false,2,629.1600000113249,0,1,1,81513,WMM2,242475,false,true,265,image-keyboard-response,30
true,3,2,4,2,true,d,false,false,0.0-2.0-0.6-0.60-3.60,0,1,1,68,true,stim,false,2,1060.1400000159629,0,0,0,81513,WMM2,245066,false,true,268,image-keyboard-response,1
true,3,2,4,1,false,z,true,false,0.0-2.0-0.6-0.61-3.61,0,1,1,68,false,stim,false,1,881.8149999715388,0,1,2,81513,WMM2,247472,false,false,271,image-keyboard-response,2
true,3,1,4,2,false,d,true,false,0.0-2.0-0.6-0.62-3.62,0,1,1,90,false,stim,false,2,523.4649999765679,0,1,1,81513,WMM2,249518,false,false,274,image-keyboard-response,3
true,3,1,4,2,false,d,true,true,0.0-2.0-0.7-0.63-3.63,0,1,1,90,false,stim,false,2,604.9399999901652,0,1,1,81513,WMM2,251645,false,true,277,image-keyboard-response,4
true,3,1,4,2,false,d,true,true,0.0-2.0-0.7-0.64-3.64,0,1,1,90,false,stim,false,2,666.750000033062,0,1,1,81513,WMM2,253824,false,true,280,image-keyboard-response,5
true,3,0,4,1,false,z,true,false,0.0-2.0-0.7-0.65-3.65,0,1,1,81,false,stim,false,1,844.8000000207685,0,1,2,81513,WMM2,256201,false,false,283,image-keyboard-response,6
true,3,2,4,2,true,d,false,false,0.0-2.0-0.7-0.66-3.66,0,1,1,68,false,stim,false,2,1032.5300000258721,0,0,0,81513,WMM2,258748,false,true,286,image-keyboard-response,7
true,3,2,4,2,true,d,false,true,0.0-2.0-0.7-0.67-3.67,0,1,1,68,false,stim,false,2,635.8649999601766,0,0,0,81513,WMM2,260908,false,false,289,image-keyboard-response,8
true,3,1,4,2,false,d,true,true,0.0-2.0-0.7-0.68-3.68,0,1,1,90,false,stim,false,2,1665.839999972377,0,1,1,81513,WMM2,264094,false,true,292,image-keyboard-response,9
true,3,1,4,1,true,z,false,false,0.0-2.0-0.7-0.69-3.69,0,1,1,90,false,stim,false,1,629.369999980554,0,1,2,81513,WMM2,266252,false,true,295,image-keyboard-response,10
true,3,2,4,2,true,d,false,true,0.0-2.0-0.7-0.70-3.70,0,1,1,68,false,stim,false,2,867.2399999923073,0,0,0,81513,WMM2,268648,false,false,298,image-keyboard-response,11
true,3,1,4,1,true,z,false,true,0.0-2.0-0.7-0.71-3.71,0,1,1,90,false,stim,false,1,473.9799999515526,0,1,2,81513,WMM2,270654,false,false,301,image-keyboard-response,12
true,3,1,4,2,false,d,true,false,0.0-2.0-0.8-0.72-3.72,0,1,1,90,false,stim,false,2,552.4750000331551,0,1,1,81513,WMM2,272725,false,false,304,image-keyboard-response,13
true,3,1,4,1,true,z,false,true,0.0-2.0-0.8-0.73-3.73,0,1,1,90,false,stim,false,1,578.4950000233948,0,1,2,81513,WMM2,274823,false,false,307,image-keyboard-response,14
true,3,2,4,2,true,d,false,true,0.0-2.0-0.8-0.74-3.74,0,1,1,68,false,stim,false,2,525.2350000082515,0,0,0,81513,WMM2,276874,false,false,310,image-keyboard-response,15
true,3,1,4,2,false,d,true,true,0.0-2.0-0.8-0.75-3.75,0,1,1,90,false,stim,false,2,699.8650000314228,0,1,1,81513,WMM2,279094,false,true,313,image-keyboard-response,16
true,3,1,4,1,true,z,false,false,0.0-2.0-0.8-0.76-3.76,0,1,1,90,false,stim,false,1,531.6149999853224,0,1,2,81513,WMM2,281146,false,true,316,image-keyboard-response,17
true,3,1,4,1,true,z,false,true,0.0-2.0-0.8-0.77-3.77,0,1,1,90,false,stim,false,1,786.9599999976344,0,1,2,81513,WMM2,283460,false,false,319,image-keyboard-response,18
true,3,2,4,2,true,d,false,true,0.0-2.0-0.8-0.78-3.78,0,1,1,68,false,stim,false,2,553.5299999755807,0,0,0,81513,WMM2,285539,false,false,322,image-keyboard-response,19
true,3,2,4,2,true,d,false,false,0.0-2.0-0.8-0.79-3.79,0,1,1,68,false,stim,false,2,585.8449999941513,0,0,0,81513,WMM2,287646,false,true,325,image-keyboard-response,20
true,3,1,4,2,false,d,true,false,0.0-2.0-0.8-0.80-3.80,0,1,1,90,false,stim,false,2,590.0399999809451,0,1,1,81513,WMM2,289762,false,false,328,image-keyboard-response,21
true,3,2,4,2,true,d,false,true,0.0-2.0-0.9-0.81-3.81,0,1,1,68,false,stim,false,2,761.1749999923632,0,0,0,81513,WMM2,292046,false,false,331,image-keyboard-response,22
true,3,1,4,2,false,d,true,false,0.0-2.0-0.9-0.82-3.82,0,1,1,90,false,stim,false,2,527.1450000000186,0,1,1,81513,WMM2,294101,false,false,334,image-keyboard-response,23
true,3,2,4,2,true,d,false,true,0.0-2.0-0.9-0.83-3.83,0,1,1,68,false,stim,false,2,719.9750000145286,0,0,0,81513,WMM2,296347,false,false,337,image-keyboard-response,24
true,3,2,4,2,true,d,false,true,0.0-2.0-0.9-0.84-3.84,0,1,1,68,false,stim,false,2,849.97999999905,0,0,0,81513,WMM2,298724,false,false,340,image-keyboard-response,25
true,3,1,4,1,true,z,false,false,0.0-2.0-0.9-0.85-3.85,0,1,1,90,false,stim,false,1,764.5650000195019,0,1,2,81513,WMM2,300998,false,true,343,image-keyboard-response,26
true,3,1,4,2,false,d,true,false,0.0-2.0-0.9-0.86-3.86,0,1,1,90,false,stim,false,2,605.3550000069663,0,1,1,81513,WMM2,303124,false,false,346,image-keyboard-response,27
true,3,1,4,1,true,z,false,true,0.0-2.0-0.9-0.87-3.87,0,1,1,90,false,stim,false,1,813.7349999742582,0,1,2,81513,WMM2,305470,false,false,349,image-keyboard-response,28
true,3,0,4,2,false,d,true,false,0.0-2.0-0.9-0.88-3.88,0,1,1,81,false,stim,false,2,793.7499999534339,0,1,1,81513,WMM2,307797,false,false,352,image-keyboard-response,29
true,3,1,4,1,true,z,false,true,0.0-2.0-0.9-0.89-3.89,0,1,1,90,false,stim,false,1,1033.9000000385568,0,1,2,81513,WMM2,310366,false,false,355,image-keyboard-response,30
true,3,1,4,1,true,z,false,true,0.0-2.0-0.10-0.90-3.90,0,1,1,90,false,stim,false,1,892.6799999899231,0,1,2,81513,WMM2,312787,false,false,358,image-keyboard-response,31
true,3,1,4,1,true,z,false,true,0.0-2.0-0.10-0.91-3.91,0,1,1,90,false,stim,false,1,503.08999995468184,0,1,2,81513,WMM2,314816,false,false,361,image-keyboard-response,32
true,3,2,4,2,true,d,false,true,0.0-2.0-0.10-0.92-3.92,0,1,1,68,false,stim,false,2,556.8450000137091,0,0,0,81513,WMM2,316900,false,false,364,image-keyboard-response,33
true,3,2,4,2,true,d,false,false,0.0-2.0-0.10-0.93-3.93,0,1,1,68,false,stim,false,2,566.419999988284,0,1,1,81513,WMM2,318986,false,true,367,image-keyboard-response,34
true,3,2,4,2,true,d,false,true,0.0-2.0-0.10-0.94-3.94,0,1,1,68,false,stim,false,2,842.9250000044703,0,0,0,81513,WMM2,321352,false,false,370,image-keyboard-response,35
true,3,1,4,2,false,d,true,false,0.0-2.0-0.10-0.95-3.95,0,1,1,90,false,stim,false,2,725.7849999587052,0,1,1,81513,WMM2,323610,false,false,373,image-keyboard-response,36
true,3,2,4,2,true,d,false,true,0.0-2.0-0.10-0.96-3.96,0,1,1,68,false,stim,false,2,627.3049999726936,0,0,0,81513,WMM2,325765,false,false,376,image-keyboard-response,37
true,3,1,4,2,false,d,true,false,0.0-2.0-0.10-0.97-3.97,0,1,1,90,false,stim,false,2,984.3700000201352,0,1,1,81513,WMM2,328277,false,false,379,image-keyboard-response,38
true,3,1,4,1,true,z,false,true,0.0-2.0-0.10-0.98-3.98,0,1,1,90,false,stim,false,1,510.4750000173226,0,1,2,81513,WMM2,330316,false,false,382,image-keyboard-response,39
true,3,2,4,2,true,d,false,true,0.0-2.0-0.11-0.99-3.99,0,1,1,68,false,stim,false,2,826.375000004191,0,0,0,81513,WMM2,332665,false,false,385,image-keyboard-response,40
true,3,2,4,2,true,d,false,true,0.0-2.0-0.11-0.100-3.100,0,1,1,68,false,stim,false,2,676.7000000108965,0,1,1,81513,WMM2,334869,false,false,388,image-keyboard-response,41
true,3,2,4,2,true,d,false,false,0.0-2.0-0.11-0.101-3.101,0,1,1,68,false,stim,false,2,570.8400000003166,0,0,0,81513,WMM2,336971,false,true,391,image-keyboard-response,42
true,3,2,4,2,true,d,false,true,0.0-2.0-0.11-0.102-3.102,0,1,1,68,false,stim,false,2,498.65000002318993,0,0,0,81513,WMM2,338989,false,false,394,image-keyboard-response,43
true,3,1,4,1,true,z,false,false,0.0-2.0-0.11-0.103-3.103,0,1,1,90,false,stim,false,1,813.7450000504032,0,1,2,81513,WMM2,341318,false,true,397,image-keyboard-response,44
true,3,1,4,1,true,z,false,true,0.0-2.0-0.11-0.104-3.104,0,1,1,90,false,stim,false,1,457.36500003840774,0,1,2,81513,WMM2,343301,false,false,400,image-keyboard-response,45
true,3,1,4,1,true,z,false,true,0.0-2.0-0.11-0.105-3.105,0,1,1,90,false,stim,false,1,467.2599999466911,0,1,2,81513,WMM2,345303,false,false,403,image-keyboard-response,46
true,3,2,4,2,true,d,false,true,0.0-2.0-0.11-0.106-3.106,0,1,1,68,false,stim,false,2,872.9550000280142,0,1,1,81513,WMM2,347706,false,false,406,image-keyboard-response,47
true,3,2,4,2,true,d,false,true,0.0-2.0-0.11-0.107-3.107,0,1,1,68,false,stim,false,2,421.23500001616776,0,1,1,81513,WMM2,349663,false,false,409,image-keyboard-response,48
true,3,2,4,2,true,d,false,true,0.0-2.0-0.12-0.108-3.108,0,1,1,68,false,stim,false,2,408.1199999782257,0,1,1,81513,WMM2,351606,false,false,412,image-keyboard-response,49
true,3,1,4,1,true,z,false,true,0.0-2.0-0.12-0.109-3.109,0,1,1,90,false,stim,false,1,592.7299999748357,0,0,2,81513,WMM2,353726,false,false,415,image-keyboard-response,50
true,3,2,4,2,true,d,false,true,0.0-2.0-0.12-0.110-3.110,0,1,1,68,false,stim,false,2,517.6650000503287,0,1,0,81513,WMM2,355764,false,false,418,image-keyboard-response,51
true,3,2,4,2,true,d,false,true,0.0-2.0-0.12-0.111-3.111,0,1,1,68,false,stim,false,2,679.9349999637343,0,1,1,81513,WMM2,357974,false,false,421,image-keyboard-response,52
true,3,1,4,1,true,z,false,true,0.0-2.0-0.12-0.112-3.112,0,1,1,90,false,stim,false,1,594.3749999860302,0,0,2,81513,WMM2,360091,false,false,424,image-keyboard-response,53
true,3,2,4,2,true,d,false,false,0.0-2.0-0.12-0.113-3.113,0,1,1,68,false,stim,false,2,494.56000002101064,0,1,0,81513,WMM2,362114,false,true,427,image-keyboard-response,54
true,3,2,4,2,true,d,false,true,0.0-2.0-0.12-0.114-3.114,0,1,1,68,false,stim,false,2,871.9350000028498,0,1,1,81513,WMM2,364510,false,false,430,image-keyboard-response,55
true,3,1,4,1,true,z,false,true,0.0-2.0-0.12-0.115-3.115,0,1,1,90,false,stim,false,1,536.0600000130944,0,0,2,81513,WMM2,366565,false,false,433,image-keyboard-response,56
true,3,2,4,2,true,d,false,true,0.0-2.0-0.12-0.116-3.116,0,1,1,68,false,stim,false,2,584.2149999807589,0,1,0,81513,WMM2,368677,false,false,436,image-keyboard-response,57
true,4,2,2,2,true,d,false,true,0.0-2.0-0.13-0.117-3.117,1,1,0,68,true,stim,false,2,947.684999962803,0,1,1,81513,WMM2,371150,false,false,439,image-keyboard-response,1
true,4,1,2,0,false,q,false,false,0.0-2.0-0.13-0.118-3.118,1,1,0,90,false,stim,true,1,524.890000000596,0,0,2,81513,WMM2,373206,false,false,442,image-keyboard-response,2
true,4,2,2,2,true,d,false,true,0.0-2.0-0.13-0.119-3.119,1,1,0,68,false,stim,false,2,644.8450000025332,0,1,0,81513,WMM2,375373,false,false,445,image-keyboard-response,3
true,4,2,2,2,true,d,false,true,0.0-2.0-0.13-0.120-3.120,1,1,0,68,false,stim,false,2,597.7350000175647,0,1,0,81513,WMM2,377502,false,false,448,image-keyboard-response,4
true,4,1,2,0,false,q,false,false,0.0-2.0-0.13-0.121-3.121,1,1,0,90,false,stim,true,1,831.4849999733269,0,0,2,81513,WMM2,379850,false,false,451,image-keyboard-response,5
true,4,2,2,2,true,d,false,true,0.0-2.0-0.13-0.122-3.122,1,1,0,68,false,stim,false,2,912.5550000462681,0,1,1,81513,WMM2,382292,false,false,454,image-keyboard-response,6
true,4,2,2,2,true,d,false,true,0.0-2.0-0.13-0.123-3.123,1,1,0,68,false,stim,false,2,545.4699999536388,0,1,0,81513,WMM2,384363,false,false,457,image-keyboard-response,7
true,4,1,2,0,false,q,false,false,0.0-2.0-0.13-0.124-3.124,1,1,0,90,false,stim,true,1,635.2649999898858,0,0,2,81513,WMM2,386519,false,false,460,image-keyboard-response,8
true,4,2,2,2,true,d,false,true,0.0-2.0-0.13-0.125-3.125,1,1,0,68,false,stim,false,2,531.7999999970198,0,1,1,81513,WMM2,388575,false,false,463,image-keyboard-response,9
true,4,2,2,2,true,d,false,true,0.0-2.0-0.14-0.126-3.126,1,1,0,68,false,stim,false,2,530.7400000165217,0,1,0,81513,WMM2,390635,false,false,466,image-keyboard-response,10
true,4,2,2,2,true,d,false,true,0.0-2.0-0.14-0.127-3.127,1,1,0,68,false,stim,false,2,651.1499999905936,0,1,0,81513,WMM2,392799,false,false,469,image-keyboard-response,11
true,4,2,2,2,true,d,false,false,0.0-2.0-0.14-0.128-3.128,1,1,0,68,false,stim,false,2,785.5050000362098,0,1,1,81513,WMM2,395105,false,true,472,image-keyboard-response,12
true,4,2,2,2,true,d,false,true,0.0-2.0-0.14-0.129-3.129,1,1,0,68,false,stim,false,2,582.6349999988452,0,1,1,81513,WMM2,397216,false,false,475,image-keyboard-response,13
true,4,0,2,0,true,q,false,true,0.0-2.0-0.14-0.130-3.130,1,1,0,81,false,stim,false,1,478.00000000279397,0,0,2,81513,WMM2,399212,false,false,478,image-keyboard-response,14
true,4,2,2,2,true,d,false,true,0.0-2.0-0.14-0.131-3.131,1,1,0,68,false,stim,false,2,573.3100000070408,0,1,0,81513,WMM2,401295,false,false,481,image-keyboard-response,15
true,4,0,2,0,true,q,false,true,0.0-2.0-0.14-0.132-3.132,1,1,0,81,false,stim,false,1,563.2049999549054,0,0,2,81513,WMM2,403379,false,false,484,image-keyboard-response,16
true,4,2,2,2,true,d,false,true,0.0-2.0-0.14-0.133-3.133,1,1,0,68,false,stim,false,2,671.4650000212714,0,1,1,81513,WMM2,405571,false,false,487,image-keyboard-response,17
true,4,0,2,0,true,q,false,true,0.0-2.0-0.14-0.134-3.134,1,1,0,81,false,stim,false,1,687.9400000325404,0,0,2,81513,WMM2,407794,false,false,490,image-keyboard-response,18
true,4,2,2,2,true,d,false,true,0.0-2.0-0.15-0.135-3.135,1,1,0,68,false,stim,false,2,805.5399999720976,0,1,0,81513,WMM2,410124,false,false,493,image-keyboard-response,19
true,4,2,2,0,false,q,true,false,0.0-2.0-0.15-0.136-3.136,1,1,0,68,false,stim,false,1,1210.5500000179745,0,0,2,81513,WMM2,412854,false,false,496,image-keyboard-response,20
true,4,2,2,2,true,d,false,true,0.0-2.0-0.15-0.137-3.137,1,1,0,68,false,stim,false,2,561.5100000286475,0,1,1,81513,WMM2,414937,false,false,499,image-keyboard-response,21
true,4,2,2,2,true,d,false,true,0.0-2.0-0.15-0.138-3.138,1,1,0,68,false,stim,false,2,623.4399999957532,0,1,0,81513,WMM2,417101,false,false,502,image-keyboard-response,22
true,4,2,2,2,true,d,false,true,0.0-2.0-0.15-0.139-3.139,1,1,0,68,false,stim,false,2,817.7850000211038,0,1,0,81513,WMM2,419441,false,false,505,image-keyboard-response,23
true,4,2,2,2,true,d,false,true,0.0-2.0-0.15-0.140-3.140,1,1,0,68,false,stim,false,2,754.0150000131689,0,1,1,81513,WMM2,421706,false,false,508,image-keyboard-response,24
true,4,0,2,0,true,q,false,true,0.0-2.0-0.15-0.141-3.141,1,1,0,81,false,stim,false,1,532.1099999709986,0,0,2,81513,WMM2,423763,false,false,511,image-keyboard-response,25
true,4,0,2,0,true,q,false,true,0.0-2.0-0.15-0.142-3.142,1,1,0,81,false,stim,false,1,569.4800000055693,0,0,2,81513,WMM2,425853,false,false,514,image-keyboard-response,26
true,4,2,2,2,true,d,false,true,0.0-2.0-0.15-0.143-3.143,1,1,0,68,false,stim,false,2,551.2000000453554,0,1,1,81513,WMM2,427929,false,false,517,image-keyboard-response,27
true,4,2,2,2,true,d,false,true,0.0-2.0-0.16-0.144-3.144,1,1,0,68,false,stim,false,2,635.2099999785423,0,1,1,81513,WMM2,430090,false,false,520,image-keyboard-response,28
true,4,0,2,0,true,q,false,true,0.0-2.0-0.16-0.145-3.145,1,1,0,81,false,stim,false,1,678.4050000132993,0,1,2,81513,WMM2,432290,false,false,523,image-keyboard-response,29
true,4,2,2,2,true,d,false,true,0.0-2.0-0.16-0.146-3.146,1,1,0,68,false,stim,false,2,655.5049999733455,0,1,1,81513,WMM2,434467,false,false,526,image-keyboard-response,30
true,4,0,2,0,true,q,false,true,0.0-2.0-0.16-0.147-3.147,1,1,0,81,false,stim,false,1,503.5049999714829,0,1,2,81513,WMM2,436491,false,false,529,image-keyboard-response,31
true,4,2,2,2,true,d,false,true,0.0-2.0-0.16-0.148-3.148,1,1,0,68,false,stim,false,2,914.8649999988265,0,1,1,81513,WMM2,438926,false,false,532,image-keyboard-response,32
true,4,2,2,2,true,d,false,false,0.0-2.0-0.16-0.149-3.149,1,1,0,68,false,stim,false,2,1240.2950000250712,0,0,0,81513,WMM2,441686,false,true,535,image-keyboard-response,33
true,4,0,2,0,true,q,false,true,0.0-2.0-0.16-0.150-3.150,1,1,0,81,false,stim,false,1,679.2900000000373,0,1,2,81513,WMM2,443882,false,false,538,image-keyboard-response,34
true,4,0,2,2,false,d,true,false,0.0-2.0-0.16-0.151-3.151,1,1,0,81,false,stim,false,2,600.0150000327267,0,0,0,81513,WMM2,446004,false,false,541,image-keyboard-response,35
true,4,2,2,2,true,d,false,true,0.0-2.0-0.16-0.152-3.152,1,1,0,68,false,stim,false,2,623.9049999858253,0,0,0,81513,WMM2,448154,false,false,544,image-keyboard-response,36
true,5,0,4,0,true,q,false,true,0.0-2.0-0.17-0.153-3.153,0,1,1,81,true,stim,false,0,575.0700000207871,0,1,2,81513,WMM2,450258,false,false,547,image-keyboard-response,1
true,5,2,4,2,true,d,false,true,0.0-2.0-0.17-0.154-3.154,0,1,1,68,false,stim,false,2,821.7200000071898,0,1,1,81513,WMM2,452599,false,false,550,image-keyboard-response,2
true,5,0,4,0,true,q,false,false,0.0-2.0-0.17-0.155-3.155,0,1,1,81,false,stim,false,0,648.8999999710359,0,1,2,81513,WMM2,454773,false,true,553,image-keyboard-response,3
true,5,2,4,2,true,d,false,true,0.0-2.0-0.17-0.156-3.156,0,1,1,68,false,stim,false,2,852.7499999618158,0,0,0,81513,WMM2,457148,false,false,556,image-keyboard-response,4
true,5,2,4,2,true,d,false,true,0.0-2.0-0.17-0.157-3.157,0,1,1,68,false,stim,false,2,528.5699999658391,0,0,0,81513,WMM2,459195,false,false,559,image-keyboard-response,5
true,5,2,4,2,true,d,false,true,0.0-2.0-0.17-0.158-3.158,0,1,1,68,false,stim,false,2,661.4150000386871,0,1,1,81513,WMM2,461375,false,false,562,image-keyboard-response,6
true,5,2,4,2,true,d,false,true,0.0-2.0-0.17-0.159-3.159,0,1,1,68,false,stim,false,2,390.50500001758337,0,1,1,81513,WMM2,463292,false,false,565,image-keyboard-response,7
true,5,2,4,2,true,d,false,true,0.0-2.0-0.17-0.160-3.160,0,1,1,68,false,stim,false,2,769.1950000007637,0,0,0,81513,WMM2,465583,false,false,568,image-keyboard-response,8
true,5,0,4,0,true,q,false,true,0.0-2.0-0.17-0.161-3.161,0,1,1,81,false,stim,false,0,485.97999999765307,0,1,2,81513,WMM2,467600,false,false,571,image-keyboard-response,9
true,5,2,4,2,true,d,false,true,0.0-2.0-0.18-0.162-3.162,0,1,1,68,false,stim,false,2,1031.8499999702908,0,0,0,81513,WMM2,470165,false,false,574,image-keyboard-response,10
true,5,2,4,2,true,d,false,false,0.0-2.0-0.18-0.163-3.163,0,1,1,68,false,stim,false,2,1137.575000000652,0,1,1,81513,WMM2,472828,false,true,577,image-keyboard-response,11
true,5,0,4,0,true,q,false,true,0.0-2.0-0.18-0.164-3.164,0,1,1,81,false,stim,false,0,508.7150000035763,0,1,2,81513,WMM2,474857,false,false,580,image-keyboard-response,12
true,5,2,4,2,true,d,false,true,0.0-2.0-0.18-0.165-3.165,0,1,1,68,false,stim,false,2,485.01499998383224,0,0,0,81513,WMM2,476871,false,false,583,image-keyboard-response,13
true,5,2,4,2,true,d,false,true,0.0-2.0-0.18-0.166-3.166,0,1,1,68,false,stim,false,2,474.0449999808334,0,1,1,81513,WMM2,478868,false,false,586,image-keyboard-response,14
true,5,2,4,2,true,d,false,true,0.0-2.0-0.18-0.167-3.167,0,1,1,68,false,stim,false,2,839.9150000186637,0,0,0,81513,WMM2,481238,false,false,589,image-keyboard-response,15
true,5,0,4,0,true,q,false,true,0.0-2.0-0.18-0.168-3.168,0,1,1,81,false,stim,false,0,1017.2000000020489,0,1,2,81513,WMM2,483776,false,false,592,image-keyboard-response,16
true,5,2,4,2,true,d,false,true,0.0-2.0-0.18-0.169-3.169,0,1,1,68,false,stim,false,2,850.4950000206009,0,1,1,81513,WMM2,486148,false,false,595,image-keyboard-response,17
true,5,0,4,0,true,q,false,true,0.0-2.0-0.18-0.170-3.170,0,1,1,81,false,stim,false,0,737.4399999971502,0,1,2,81513,WMM2,488411,false,false,598,image-keyboard-response,18
true,5,0,4,0,true,q,false,true,0.0-2.0-0.19-0.171-3.171,0,1,1,81,false,stim,false,0,700.7050000247546,0,1,2,81513,WMM2,490634,false,false,601,image-keyboard-response,19
true,5,0,4,0,true,q,false,false,0.0-2.0-0.19-0.172-3.172,0,1,1,81,false,stim,false,0,459.88999999826774,0,1,2,81513,WMM2,492620,false,true,604,image-keyboard-response,20
true,5,2,4,2,true,d,false,true,0.0-2.0-0.19-0.173-3.173,0,1,1,68,false,stim,false,2,710.4099999996834,0,1,0,81513,WMM2,494853,false,false,607,image-keyboard-response,21
true,5,2,4,2,true,d,false,true,0.0-2.0-0.19-0.174-3.174,0,1,1,68,false,stim,false,2,797.420000017155,0,1,0,81513,WMM2,497172,false,false,610,image-keyboard-response,22
true,5,2,4,2,true,d,false,true,0.0-2.0-0.19-0.175-3.175,0,1,1,68,false,stim,false,2,565.085000009276,0,0,1,81513,WMM2,499257,false,false,613,image-keyboard-response,23
true,5,2,4,2,true,d,false,true,0.0-2.0-0.19-0.176-3.176,0,1,1,68,false,stim,false,2,581.9049999699928,0,1,0,81513,WMM2,501354,false,false,616,image-keyboard-response,24
true,5,0,4,0,true,q,false,false,0.0-2.0-0.19-0.177-3.177,0,1,1,81,false,stim,false,0,639.9850000161678,0,1,2,81513,WMM2,503512,false,true,619,image-keyboard-response,25
true,5,2,4,2,true,d,false,true,0.0-2.0-0.19-0.178-3.178,0,1,1,68,false,stim,false,2,809.6200000145473,0,0,1,81513,WMM2,505838,false,false,622,image-keyboard-response,26
true,5,2,4,2,true,d,false,true,0.0-2.0-0.19-0.179-3.179,0,1,1,68,false,stim,false,2,574.8599999933504,0,0,1,81513,WMM2,507936,false,false,625,image-keyboard-response,27
true,5,1,4,0,false,q,true,false,0.0-2.0-0.20-0.180-3.180,0,1,1,90,false,stim,false,0,575.524999992922,0,1,2,81513,WMM2,510031,false,false,628,image-keyboard-response,28
true,5,2,4,2,true,d,false,true,0.0-2.0-0.20-0.181-3.181,0,1,1,68,false,stim,false,2,432.7400000183843,0,0,1,81513,WMM2,511984,false,false,631,image-keyboard-response,29
true,5,0,4,0,true,q,false,true,0.0-2.0-0.20-0.182-3.182,0,1,1,81,false,stim,false,0,547.3200000124052,0,1,2,81513,WMM2,514062,false,false,634,image-keyboard-response,30
true,6,2,3,2,true,d,false,true,0.0-2.0-0.20-0.183-3.183,1,0,1,68,true,stim,false,2,657.3750000097789,0,1,0,81513,WMM2,516252,false,false,637,image-keyboard-response,1
true,6,2,3,2,true,d,false,true,0.0-2.0-0.20-0.184-3.184,1,0,1,68,false,stim,false,2,542.8199999732897,0,1,0,81513,WMM2,518324,false,false,640,image-keyboard-response,2
true,6,2,3,0,false,q,false,false,0.0-2.0-0.20-0.185-3.185,1,0,1,68,false,stim,true,2,1076.7599999671802,0,0,1,81513,WMM2,520923,false,false,643,image-keyboard-response,3
true,6,0,3,0,true,q,false,true,0.0-2.0-0.20-0.186-3.186,1,0,1,81,false,stim,false,0,490.36499997600913,0,1,2,81513,WMM2,522939,false,false,646,image-keyboard-response,4
true,6,2,3,0,false,q,false,false,0.0-2.0-0.20-0.187-3.187,1,0,1,68,false,stim,true,2,429.41500002052635,0,0,1,81513,WMM2,524893,false,false,649,image-keyboard-response,5
true,6,2,3,2,true,d,false,true,0.0-2.0-0.20-0.188-3.188,1,0,1,68,false,stim,false,2,673.8200000254437,0,1,0,81513,WMM2,527089,false,false,652,image-keyboard-response,6
true,6,0,3,0,true,q,false,true,0.0-2.0-0.21-0.189-3.189,1,0,1,81,false,stim,false,0,721.8050000374205,0,1,2,81513,WMM2,529342,false,false,655,image-keyboard-response,7
true,6,2,3,2,true,d,false,true,0.0-2.0-0.21-0.190-3.190,1,0,1,68,false,stim,false,2,648.140000004787,0,1,0,81513,WMM2,531506,false,false,658,image-keyboard-response,8
true,6,2,3,2,true,d,false,true,0.0-2.0-0.21-0.191-3.191,1,0,1,68,false,stim,false,2,556.3449999899603,0,1,0,81513,WMM2,533594,false,false,661,image-keyboard-response,9
true,6,1,3,0,false,q,true,false,0.0-2.0-0.21-0.192-3.192,1,0,1,90,false,stim,false,2,563.0800000508316,0,0,1,81513,WMM2,535672,false,false,664,image-keyboard-response,10
true,6,0,3,0,true,q,false,true,0.0-2.0-0.21-0.193-3.193,1,0,1,81,false,stim,false,0,634.699999995064,0,1,2,81513,WMM2,537824,false,false,667,image-keyboard-response,11
true,6,0,3,0,true,q,false,true,0.0-2.0-0.21-0.194-3.194,1,0,1,81,false,stim,false,0,640.9349999739788,0,1,2,81513,WMM2,539978,false,false,670,image-keyboard-response,12
true,6,0,3,0,true,q,false,true,0.0-2.0-0.21-0.195-3.195,1,0,1,81,false,stim,false,2,596.3150000316091,0,0,1,81513,WMM2,542105,false,false,673,image-keyboard-response,13
true,6,2,3,2,true,d,false,true,0.0-2.0-0.21-0.196-3.196,1,0,1,68,false,stim,false,2,416.42500000307336,0,1,0,81513,WMM2,544047,false,false,676,image-keyboard-response,14
true,6,0,3,0,true,q,false,true,0.0-2.0-0.21-0.197-3.197,1,0,1,81,false,stim,false,2,425.14000000664964,0,0,1,81513,WMM2,546010,false,false,679,image-keyboard-response,15
true,6,0,3,0,true,q,false,true,0.0-2.0-0.22-0.198-3.198,1,0,1,81,false,stim,false,0,458.4649999742396,0,1,2,81513,WMM2,547996,false,false,682,image-keyboard-response,16
true,6,0,3,0,true,q,false,true,0.0-2.0-0.22-0.199-3.199,1,0,1,81,false,stim,false,2,410.09499999927357,0,0,1,81513,WMM2,549936,false,false,685,image-keyboard-response,17
true,6,0,3,0,true,q,false,true,0.0-2.0-0.22-0.200-3.200,1,0,1,81,false,stim,false,0,402.44000003440306,0,1,2,81513,WMM2,551867,false,false,688,image-keyboard-response,18
true,6,2,3,2,true,d,false,false,0.0-2.0-0.22-0.201-3.201,1,0,1,68,false,stim,false,2,495.290000049863,0,1,0,81513,WMM2,553885,false,true,691,image-keyboard-response,19
true,6,0,3,0,true,q,false,true,0.0-2.0-0.22-0.202-3.202,1,0,1,81,false,stim,false,2,576.6899999580346,0,0,1,81513,WMM2,555984,false,false,694,image-keyboard-response,20
true,6,0,3,0,true,q,false,true,0.0-2.0-0.22-0.203-3.203,1,0,1,81,false,stim,false,0,354.51500001363456,0,1,2,81513,WMM2,557858,false,false,697,image-keyboard-response,21
true,6,2,3,2,true,d,false,true,0.0-2.0-0.22-0.204-3.204,1,0,1,68,false,stim,false,2,519.5800000219606,0,0,0,81513,WMM2,559905,false,false,700,image-keyboard-response,22
true,6,0,3,0,true,q,false,true,0.0-2.0-0.22-0.205-3.205,1,0,1,81,false,stim,false,2,366.4149999967776,0,0,1,81513,WMM2,561796,false,false,703,image-keyboard-response,23
true,6,2,3,2,true,d,false,true,0.0-2.0-0.22-0.206-3.206,1,0,1,68,false,stim,false,2,652.7500000083819,0,0,0,81513,WMM2,563974,false,false,706,image-keyboard-response,24
true,6,0,3,0,true,q,false,true,0.0-2.0-0.23-0.207-3.207,1,0,1,81,false,stim,false,0,712.8950000042096,0,1,2,81513,WMM2,566206,false,false,709,image-keyboard-response,25
true,6,2,3,2,true,d,false,true,0.0-2.0-0.23-0.208-3.208,1,0,1,68,false,stim,false,2,654.949999996461,0,0,0,81513,WMM2,568389,false,false,712,image-keyboard-response,26
true,6,0,3,0,true,q,false,true,0.0-2.0-0.23-0.209-3.209,1,0,1,81,false,stim,false,2,803.5999999847263,0,0,1,81513,WMM2,570723,false,false,715,image-keyboard-response,27
true,6,0,3,0,true,q,false,true,0.0-2.0-0.23-0.210-3.210,1,0,1,81,false,stim,false,0,1009.4150000368245,0,1,2,81513,WMM2,573256,false,false,718,image-keyboard-response,28
true,6,2,3,2,true,d,false,true,0.0-2.0-0.23-0.211-3.211,1,0,1,68,false,stim,false,2,628.8000000058673,0,0,0,81513,WMM2,575403,false,false,721,image-keyboard-response,29
true,6,2,3,2,true,d,false,true,0.0-2.0-0.23-0.212-3.212,1,0,1,68,false,stim,false,2,718.4199999901466,0,0,0,81513,WMM2,577649,false,false,724,image-keyboard-response,30
true,7,0,1,2,false,d,false,false,0.0-2.0-0.23-0.213-3.213,0,0,1,81,true,stim,true,0,514.5650000195019,0,0,1,81513,WMM2,579684,false,false,727,image-keyboard-response,1
true,7,0,1,2,false,d,false,false,0.0-2.0-0.23-0.214-3.214,0,0,1,81,false,stim,true,0,427.32499999692664,0,0,1,81513,WMM2,581634,false,false,730,image-keyboard-response,2
true,7,0,1,0,true,q,false,true,0.0-2.0-0.23-0.215-3.215,0,0,1,81,false,stim,false,0,715.6749999849126,0,1,2,81513,WMM2,583880,false,false,733,image-keyboard-response,3
true,7,1,1,2,false,d,true,false,0.0-2.0-0.24-0.216-3.216,0,0,1,90,false,stim,false,0,602.3350000032224,0,0,1,81513,WMM2,586012,false,false,736,image-keyboard-response,4
true,7,2,1,1,false,z,false,true,0.0-2.0-0.24-0.217-3.217,0,0,1,68,false,stim,true,2,468.70500000659376,0,0,0,81513,WMM2,588002,false,true,739,image-keyboard-response,5
true,7,2,1,2,true,d,false,true,0.0-2.0-0.24-0.218-3.218,0,0,1,68,false,stim,false,0,721.6950000147335,0,0,1,81513,WMM2,590256,false,false,742,image-keyboard-response,6
true,7,2,1,1,false,z,false,false,0.0-2.0-0.24-0.219-3.219,0,0,1,68,false,stim,true,2,462.1000000042841,0,0,0,81513,WMM2,592242,false,false,745,image-keyboard-response,7
true,7,2,1,1,false,z,false,true,0.0-2.0-0.24-0.220-3.220,0,0,1,68,false,stim,true,2,711.3399999798276,0,0,0,81513,WMM2,594477,false,true,748,image-keyboard-response,8
true,7,0,1,0,true,q,false,true,0.0-2.0-0.24-0.221-3.221,0,0,1,81,false,stim,false,0,507.0749999722466,0,1,2,81513,WMM2,596510,false,false,751,image-keyboard-response,9
true,7,0,1,0,true,q,false,true,0.0-2.0-0.24-0.222-3.222,0,0,1,81,false,stim,false,0,502.8150000143796,0,1,2,81513,WMM2,598537,false,false,754,image-keyboard-response,10
true,7,2,1,2,true,d,false,true,0.0-2.0-0.24-0.223-3.223,0,0,1,68,false,stim,false,0,698.789999994915,0,0,1,81513,WMM2,600762,false,false,757,image-keyboard-response,11
true,7,0,1,0,true,q,false,true,0.0-2.0-0.24-0.224-3.224,0,0,1,81,false,stim,false,0,678.5500000114553,0,1,2,81513,WMM2,602973,false,false,760,image-keyboard-response,12
true,7,0,1,0,true,q,false,true,0.0-2.0-0.25-0.225-3.225,0,0,1,81,false,stim,false,0,685.5999999679625,0,1,2,81513,WMM2,605187,false,false,763,image-keyboard-response,13
true,7,2,1,1,false,z,false,false,0.0-2.0-0.25-0.226-3.226,0,0,1,68,false,stim,true,2,637.7900000079535,0,0,0,81513,WMM2,607355,false,false,766,image-keyboard-response,14
true,7,2,1,2,true,d,false,true,0.0-2.0-0.25-0.227-3.227,0,0,1,68,false,stim,false,0,1148.5449999454431,0,0,1,81513,WMM2,610039,false,false,769,image-keyboard-response,15
true,7,2,1,2,true,d,false,true,0.0-2.0-0.25-0.228-3.228,0,0,1,68,false,stim,false,0,547.5699999951757,0,0,1,81513,WMM2,612111,false,false,772,image-keyboard-response,16
true,7,1,1,1,true,z,false,false,0.0-2.0-0.25-0.229-3.229,0,0,1,90,false,stim,false,2,458.939999982249,0,0,0,81513,WMM2,614089,false,true,775,image-keyboard-response,17
true,7,0,1,1,false,z,true,false,0.0-2.0-0.25-0.230-3.230,0,0,1,81,false,stim,false,2,650.9899999946356,0,0,0,81513,WMM2,616270,false,false,778,image-keyboard-response,18
true,7,0,1,0,true,q,false,true,0.0-2.0-0.25-0.231-3.231,0,0,1,81,false,stim,false,0,906.0000000172295,0,1,2,81513,WMM2,618710,false,false,781,image-keyboard-response,19
true,7,2,1,2,true,d,false,true,0.0-2.0-0.25-0.232-3.232,0,0,1,68,false,stim,false,0,575.3900000127032,0,0,1,81513,WMM2,620814,false,false,784,image-keyboard-response,20
true,7,0,1,0,true,q,false,true,0.0-2.0-0.25-0.233-3.233,0,0,1,81,false,stim,false,0,669.8400000459515,0,1,2,81513,WMM2,623015,false,false,787,image-keyboard-response,21
true,7,0,1,0,true,q,false,true,0.0-2.0-0.26-0.234-3.234,0,0,1,81,false,stim,false,0,458.87000003131106,0,1,2,81513,WMM2,625009,false,false,790,image-keyboard-response,22
true,7,2,1,2,true,d,false,true,0.0-2.0-0.26-0.235-3.235,0,0,1,68,false,stim,false,0,641.3700000266545,0,0,1,81513,WMM2,627182,false,false,793,image-keyboard-response,23
true,7,0,1,0,true,q,false,true,0.0-2.0-0.26-0.236-3.236,0,0,1,81,false,stim,false,0,507.4000000022352,0,1,2,81513,WMM2,629213,false,false,796,image-keyboard-response,24
true,7,0,1,0,true,q,false,true,0.0-2.0-0.26-0.237-3.237,0,0,1,81,false,stim,false,0,467.8000000421889,0,1,2,81513,WMM2,631205,false,false,799,image-keyboard-response,25
true,7,2,1,1,false,z,false,false,0.0-2.0-0.26-0.238-3.238,0,0,1,68,false,stim,true,2,888.3599999826401,0,0,0,81513,WMM2,633641,false,false,802,image-keyboard-response,26
true,7,2,1,1,false,z,false,false,0.0-2.0-0.26-0.239-3.239,0,0,1,68,false,stim,true,2,454.01500002481043,0,0,0,81513,WMM2,635620,false,false,805,image-keyboard-response,27
true,7,0,1,1,false,z,true,false,0.0-2.0-0.26-0.240-3.240,0,0,1,81,false,stim,false,2,413.2349999854341,0,0,0,81513,WMM2,637566,false,false,808,image-keyboard-response,28
true,7,2,1,2,true,d,false,false,0.0-2.0-0.26-0.241-3.241,0,0,1,68,false,stim,false,0,1001.8600000184961,0,0,1,81513,WMM2,640087,false,true,811,image-keyboard-response,29
true,7,2,1,2,true,d,false,true,0.0-2.0-0.26-0.242-3.242,0,0,1,68,false,stim,false,0,544.7050000075251,0,0,1,81513,WMM2,642168,false,false,814,image-keyboard-response,30
true,7,0,1,0,true,q,false,true,0.0-2.0-0.27-0.243-3.243,0,0,1,81,false,stim,false,0,380.24000002769753,0,1,2,81513,WMM2,644083,false,false,817,image-keyboard-response,31
true,7,2,1,2,true,d,false,true,0.0-2.0-0.27-0.244-3.244,0,0,1,68,false,stim,false,0,649.5149999973364,0,0,1,81513,WMM2,646265,false,false,820,image-keyboard-response,32
true,7,1,1,1,true,z,false,true,0.0-2.0-0.27-0.245-3.245,0,0,1,90,false,stim,false,2,529.4149999972433,0,0,0,81513,WMM2,648321,false,false,823,image-keyboard-response,33
true,7,1,1,1,true,z,false,true,0.0-2.0-0.27-0.246-3.246,0,0,1,90,false,stim,false,2,543.7399999937043,0,0,0,81513,WMM2,650402,false,false,826,image-keyboard-response,34
true,7,2,1,2,true,d,false,false,0.0-2.0-0.27-0.247-3.247,0,0,1,68,false,stim,false,0,607.4449999723583,0,1,1,81513,WMM2,652529,false,true,829,image-keyboard-response,35
true,7,1,1,1,true,z,false,true,0.0-2.0-0.27-0.248-3.248,0,0,1,90,false,stim,false,2,658.1350000342354,0,0,0,81513,WMM2,654709,false,false,832,image-keyboard-response,36
true,7,2,1,2,true,d,false,false,0.0-2.0-0.27-0.249-3.249,0,0,1,68,false,stim,false,0,417.76499996194616,0,1,1,81513,WMM2,656656,false,true,835,image-keyboard-response,37
true,7,0,1,0,true,q,false,false,0.0-2.0-0.27-0.250-3.250,0,0,1,81,false,stim,false,0,752.3250000085682,0,1,2,81513,WMM2,658923,false,true,838,image-keyboard-response,38
true,7,2,1,0,false,q,true,false,0.0-2.0-0.27-0.251-3.251,0,0,1,68,false,stim,false,0,748.7250000122003,0,1,2,81513,WMM2,661195,false,false,841,image-keyboard-response,39
true,7,0,1,2,false,d,false,false,0.0-2.0-0.28-0.252-3.252,0,0,1,81,false,stim,true,0,740.2200000360608,0,1,1,81513,WMM2,663465,false,false,844,image-keyboard-response,40
true,7,2,1,2,true,d,false,false,0.0-2.0-0.28-0.253-3.253,0,0,1,68,false,stim,false,0,1130.9999999939464,0,1,1,81513,WMM2,666121,false,true,847,image-keyboard-response,41
true,7,1,1,1,true,z,false,true,0.0-2.0-0.28-0.254-3.254,0,0,1,90,false,stim,false,2,1004.6699999948032,0,0,0,81513,WMM2,668650,false,false,850,image-keyboard-response,42
true,7,1,1,0,false,q,true,true,0.0-2.0-0.28-0.255-3.255,0,0,1,90,false,stim,false,0,682.61999997776,0,1,2,81513,WMM2,670862,false,true,853,image-keyboard-response,43
true,7,1,1,2,false,d,true,false,0.0-2.0-0.28-0.256-3.256,0,0,1,90,false,stim,false,0,504.5500000123866,0,1,1,81513,WMM2,672887,false,false,856,image-keyboard-response,44
true,8,1,3,0,false,q,false,false,0.0-2.0-0.28-0.257-3.257,0,1,1,90,true,stim,true,1,461.9949999614619,0,0,0,81513,WMM2,674876,false,false,859,image-keyboard-response,1
true,8,1,3,0,false,q,true,false,0.0-2.0-0.28-0.258-3.258,0,1,1,90,false,stim,false,0,746.0950000095181,0,1,2,81513,WMM2,677144,false,false,862,image-keyboard-response,2
true,8,1,3,0,false,q,false,false,0.0-2.0-0.28-0.259-3.259,0,1,1,90,false,stim,true,1,1233.6800000048243,0,0,0,81513,WMM2,679899,false,false,865,image-keyboard-response,3
true,8,1,3,0,false,q,true,false,0.0-2.0-0.28-0.260-3.260,0,1,1,90,false,stim,false,0,589.4500000285916,0,1,2,81513,WMM2,682016,false,false,868,image-keyboard-response,4
true,8,0,3,0,true,q,false,true,0.0-2.0-0.29-0.261-3.261,0,1,1,81,false,stim,false,0,567.4850000068545,0,1,2,81513,WMM2,684104,false,false,871,image-keyboard-response,5
true,8,2,3,0,false,q,true,false,0.0-2.0-0.29-0.262-3.262,0,1,1,68,false,stim,false,1,651.6749999718741,0,0,0,81513,WMM2,686284,false,false,874,image-keyboard-response,6
true,8,0,3,0,true,q,false,true,0.0-2.0-0.29-0.263-3.263,0,1,1,81,false,stim,false,1,1247.2249999991618,0,0,0,81513,WMM2,689051,false,false,877,image-keyboard-response,7
true,8,0,3,2,false,d,true,false,0.0-2.0-0.29-0.264-3.264,0,1,1,81,false,stim,false,2,747.1049999585375,0,1,1,81513,WMM2,691346,false,false,880,image-keyboard-response,8
true,8,0,3,0,true,q,false,true,0.0-2.0-0.29-0.265-3.265,0,1,1,81,false,stim,false,1,882.85499997437,0,0,0,81513,WMM2,693748,false,false,883,image-keyboard-response,9
true,8,1,3,0,false,q,true,false,0.0-2.0-0.29-0.266-3.266,0,1,1,90,false,stim,false,0,628.0949999927543,0,1,2,81513,WMM2,695884,false,false,886,image-keyboard-response,10
true,8,2,3,0,false,q,true,false,0.0-2.0-0.29-0.267-3.267,0,1,1,68,false,stim,false,0,858.7150000385009,0,1,2,81513,WMM2,698264,false,false,889,image-keyboard-response,11
true,8,0,3,2,false,d,true,false,0.0-2.0-0.29-0.268-3.268,0,1,1,81,false,stim,false,2,730.1699999952689,0,1,1,81513,WMM2,700525,false,false,892,image-keyboard-response,12
true,8,0,3,2,false,d,true,false,0.0-2.0-0.29-0.269-3.269,0,1,1,81,false,stim,false,2,858.330000017304,0,1,1,81513,WMM2,702915,false,false,895,image-keyboard-response,13
true,8,1,3,2,false,d,true,false,0.0-2.0-0.30-0.270-3.270,0,1,1,90,false,stim,false,2,541.399999987334,0,1,1,81513,WMM2,704977,false,false,898,image-keyboard-response,14
true,8,0,3,0,true,q,false,false,0.0-2.0-0.30-0.271-3.271,0,1,1,81,false,stim,false,0,657.8250000020489,0,1,2,81513,WMM2,707187,false,true,901,image-keyboard-response,15
true,8,2,3,2,true,d,false,false,0.0-2.0-0.30-0.272-3.272,0,1,1,68,false,stim,false,2,1016.7249999940395,0,1,1,81513,WMM2,709736,false,true,904,image-keyboard-response,16
true,8,0,3,0,true,q,false,true,0.0-2.0-0.30-0.273-3.273,0,1,1,81,false,stim,false,1,793.9900000346825,0,0,0,81513,WMM2,712056,false,false,907,image-keyboard-response,17
true,8,1,3,2,false,d,true,true,0.0-2.0-0.30-0.274-3.274,0,1,1,90,false,stim,false,2,1443.8499999814667,0,1,1,81513,WMM2,715023,false,true,910,image-keyboard-response,18
true,8,0,3,0,true,q,false,true,0.0-2.0-0.30-0.275-3.275,0,1,1,81,false,stim,false,1,610.0350000197068,0,0,0,81513,WMM2,717178,false,false,913,image-keyboard-response,19
true,8,0,3,0,true,q,false,true,0.0-2.0-0.30-0.276-3.276,0,1,1,81,false,stim,false,1,628.2749999663793,0,0,0,81513,WMM2,719323,false,false,916,image-keyboard-response,20
true,8,2,3,0,false,q,true,false,0.0-2.0-0.30-0.277-3.277,0,1,1,68,false,stim,false,0,1111.7050000466406,0,1,2,81513,WMM2,721964,false,false,919,image-keyboard-response,21
true,8,1,3,0,false,q,true,true,0.0-2.0-0.30-0.278-3.278,0,1,1,90,false,stim,false,0,491.73000000882894,0,1,2,81513,WMM2,723980,false,true,922,image-keyboard-response,22
true,8,1,3,0,false,q,true,false,0.0-2.0-0.31-0.279-3.279,0,1,1,90,false,stim,false,0,571.8999999808148,0,1,2,81513,WMM2,726075,false,false,925,image-keyboard-response,23
true,8,1,3,0,false,q,true,false,0.0-2.0-0.31-0.280-3.280,0,1,1,90,false,stim,false,0,489.02000003727153,0,1,2,81513,WMM2,728092,false,false,928,image-keyboard-response,24
true,8,1,3,2,false,d,true,false,0.0-2.0-0.31-0.281-3.281,0,1,1,90,false,stim,false,2,1071.929999976419,0,1,1,81513,WMM2,730691,false,false,931,image-keyboard-response,25
true,8,0,3,0,true,q,false,true,0.0-2.0-0.31-0.282-3.282,0,1,1,81,false,stim,false,1,514.7800000268035,0,0,0,81513,WMM2,732735,false,false,934,image-keyboard-response,26
true,8,0,3,0,true,q,false,true,0.0-2.0-0.31-0.283-3.283,0,1,1,81,false,stim,false,1,690.5050000059418,0,0,0,81513,WMM2,734947,false,false,937,image-keyboard-response,27
true,8,0,3,0,true,q,false,true,0.0-2.0-0.31-0.284-3.284,0,1,1,81,false,stim,false,1,474.2149999947287,0,0,0,81513,WMM2,736953,false,false,940,image-keyboard-response,28
true,8,2,3,2,true,d,false,true,0.0-2.0-0.31-0.285-3.285,0,1,1,68,false,stim,false,2,1190.9100000048056,0,1,1,81513,WMM2,739672,false,false,943,image-keyboard-response,29
true,8,1,3,0,false,q,true,false,0.0-2.0-0.31-0.286-3.286,0,1,1,90,false,stim,false,0,765.6449999776669,0,1,2,81513,WMM2,741961,false,false,946,image-keyboard-response,30
true,8,2,3,2,true,d,false,true,0.0-2.0-0.31-0.287-3.287,0,1,1,68,false,stim,false,2,432.8650000388734,0,1,1,81513,WMM2,743918,false,false,949,image-keyboard-response,31
true,8,2,3,2,true,d,false,false,0.0-2.0-0.32-0.288-3.288,0,1,1,68,false,stim,false,2,555.5249999742955,0,1,1,81513,WMM2,745995,false,true,952,image-keyboard-response,32
true,8,0,3,0,true,q,false,true,0.0-2.0-0.32-0.289-3.289,0,1,1,81,false,stim,false,1,755.9699999983422,0,0,0,81513,WMM2,748273,false,false,955,image-keyboard-response,33
true,8,2,3,2,true,d,false,true,0.0-2.0-0.32-0.290-3.290,0,1,1,68,false,stim,false,2,534.1200000257231,0,1,1,81513,WMM2,750332,false,false,958,image-keyboard-response,34
true,8,2,3,0,false,q,true,false,0.0-2.0-0.32-0.291-3.291,0,1,1,68,false,stim,false,0,516.9050000258721,0,1,2,81513,WMM2,752361,false,false,961,image-keyboard-response,35
true,8,0,3,0,true,q,false,false,0.0-2.0-0.32-0.292-3.292,0,1,1,81,false,stim,false,1,632.7550000278279,0,0,0,81513,WMM2,754511,false,true,964,image-keyboard-response,36
true,8,2,3,2,true,d,false,true,0.0-2.0-0.32-0.293-3.293,0,1,1,68,false,stim,false,2,1171.2050000205636,0,1,1,81513,WMM2,757204,false,false,967,image-keyboard-response,37
true,8,1,3,0,false,q,true,false,0.0-2.0-0.32-0.294-3.294,0,1,1,90,false,stim,false,0,570.319999998901,0,1,2,81513,WMM2,759303,false,false,970,image-keyboard-response,38
true,8,0,3,0,true,q,false,true,0.0-2.0-0.32-0.295-3.295,0,1,1,81,false,stim,false,1,673.9850000012666,0,0,0,81513,WMM2,761507,false,false,973,image-keyboard-response,39
true,8,0,3,0,true,q,false,true,0.0-2.0-0.32-0.296-3.296,0,1,1,81,false,stim,false,0,496.53499998385087,0,1,2,81513,WMM2,763525,false,false,976,image-keyboard-response,40
true,8,0,3,0,true,q,false,true,0.0-2.0-0.33-0.297-3.297,0,1,1,81,false,stim,false,0,450.5049999570474,0,1,2,81513,WMM2,765497,false,false,979,image-keyboard-response,41
true,8,2,3,2,true,d,false,true,0.0-2.0-0.33-0.298-3.298,0,1,1,68,false,stim,false,2,732.9899999895133,0,1,1,81513,WMM2,767754,false,false,982,image-keyboard-response,42
true,8,0,3,0,true,q,false,true,0.0-2.0-0.33-0.299-3.299,0,1,1,81,false,stim,false,0,435.7849999796599,0,0,2,81513,WMM2,769723,false,false,985,image-keyboard-response,43
true,8,2,3,2,true,d,false,false,0.0-2.0-0.33-0.300-3.300,0,1,1,68,false,stim,false,2,631.0950000188313,0,1,1,81513,WMM2,771884,false,true,988,image-keyboard-response,44
true,8,0,3,0,true,q,false,true,0.0-2.0-0.33-0.301-3.301,0,1,1,81,false,stim,false,1,1017.8650000016205,0,1,0,81513,WMM2,774428,false,false,991,image-keyboard-response,45
true,8,0,3,0,true,q,false,true,0.0-2.0-0.33-0.302-3.302,0,1,1,81,false,stim,false,1,534.2899999814108,0,1,0,81513,WMM2,776484,false,false,994,image-keyboard-response,46
true,8,0,3,0,true,q,false,true,0.0-2.0-0.33-0.303-3.303,0,1,1,81,false,stim,false,0,525.069999974221,0,0,2,81513,WMM2,778521,false,false,997,image-keyboard-response,47
true,8,0,3,0,true,q,false,true,0.0-2.0-0.33-0.304-3.304,0,1,1,81,false,stim,false,1,587.180000031367,0,1,0,81513,WMM2,780631,false,false,1000,image-keyboard-response,48
true,8,2,3,2,true,d,false,true,0.0-2.0-0.33-0.305-3.305,0,1,1,68,false,stim,false,2,920.0650000129826,0,1,1,81513,WMM2,783090,false,false,1003,image-keyboard-response,49
true,8,2,3,2,true,d,false,true,0.0-2.0-0.34-0.306-3.306,0,1,1,68,false,stim,false,2,609.9399999948218,0,1,1,81513,WMM2,785228,false,false,1006,image-keyboard-response,50
true,8,0,3,0,true,q,false,false,0.0-2.0-0.34-0.307-3.307,0,1,1,81,false,stim,false,1,560.2899999939837,0,1,0,81513,WMM2,787314,false,true,1009,image-keyboard-response,51
true,9,2,4,2,true,d,false,true,0.0-2.0-0.34-0.308-3.308,1,1,0,68,true,stim,false,2,640.914999996312,0,1,1,81513,WMM2,789486,false,false,1012,image-keyboard-response,1
true,9,0,4,0,true,q,false,true,0.0-2.0-0.34-0.309-3.309,1,1,0,81,false,stim,false,0,574.1799999959767,0,0,2,81513,WMM2,791587,false,false,1015,image-keyboard-response,2
true,9,0,4,0,true,q,false,true,0.0-2.0-0.34-0.310-3.310,1,1,0,81,false,stim,false,0,407.2399999713525,0,0,2,81513,WMM2,793517,false,false,1018,image-keyboard-response,3
true,9,0,4,0,true,q,false,false,0.0-2.0-0.34-0.311-3.311,1,1,0,81,false,stim,false,0,382.6649999828078,0,0,2,81513,WMM2,795425,false,true,1021,image-keyboard-response,4
true,9,0,4,0,true,q,false,true,0.0-2.0-0.34-0.312-3.312,1,1,0,81,false,stim,false,0,546.3450000388548,0,1,0,81513,WMM2,797503,false,false,1024,image-keyboard-response,5
true,9,0,4,0,true,q,false,true,0.0-2.0-0.34-0.313-3.313,1,1,0,81,false,stim,false,0,419.7299999650568,0,1,0,81513,WMM2,799455,false,false,1027,image-keyboard-response,6
true,9,2,4,2,true,d,false,true,0.0-2.0-0.34-0.314-3.314,1,1,0,68,false,stim,false,2,863.3849999750964,0,1,1,81513,WMM2,801837,false,false,1030,image-keyboard-response,7
true,9,0,4,0,true,q,false,true,0.0-2.0-0.35-0.315-3.315,1,1,0,81,false,stim,false,0,430.9650000068359,0,0,2,81513,WMM2,803798,false,false,1033,image-keyboard-response,8
true,9,2,4,2,true,d,false,false,0.0-2.0-0.35-0.316-3.316,1,1,0,68,false,stim,false,2,1261.6200000047684,0,1,1,81513,WMM2,806585,false,true,1036,image-keyboard-response,9
true,9,0,4,0,true,q,false,false,0.0-2.0-0.35-0.317-3.317,1,1,0,81,false,stim,false,0,591.4900000207126,0,1,0,81513,WMM2,808701,false,true,1039,image-keyboard-response,10
true,9,2,4,2,true,d,false,true,0.0-2.0-0.35-0.318-3.318,1,1,0,68,false,stim,false,2,579.8649999778718,0,1,1,81513,WMM2,810802,false,false,1042,image-keyboard-response,11
true,9,0,4,0,true,q,false,true,0.0-2.0-0.35-0.319-3.319,1,1,0,81,false,stim,false,0,472.4949999945238,0,1,0,81513,WMM2,812795,false,false,1045,image-keyboard-response,12
true,9,2,4,2,true,d,false,true,0.0-2.0-0.35-0.320-3.320,1,1,0,68,false,stim,false,2,902.3600000073202,0,1,1,81513,WMM2,815209,false,false,1048,image-keyboard-response,13
true,9,0,4,0,true,q,false,false,0.0-2.0-0.35-0.321-3.321,1,1,0,81,false,stim,false,0,1262.319999979809,0,1,0,81513,WMM2,817989,false,true,1051,image-keyboard-response,14
true,9,0,4,0,true,q,false,true,0.0-2.0-0.35-0.322-3.322,1,1,0,81,false,stim,false,0,775.2199999522418,0,0,2,81513,WMM2,820281,false,false,1054,image-keyboard-response,15
true,9,0,4,0,true,q,false,true,0.0-2.0-0.35-0.323-3.323,1,1,0,81,false,stim,false,0,576.630000025034,0,0,2,81513,WMM2,822387,false,false,1057,image-keyboard-response,16
true,9,2,4,2,true,d,false,true,0.0-2.0-0.36-0.324-3.324,1,1,0,68,false,stim,false,2,640.2949999901466,0,1,1,81513,WMM2,824556,false,false,1060,image-keyboard-response,17
true,9,2,4,2,true,d,false,true,0.0-2.0-0.36-0.325-3.325,1,1,0,68,false,stim,false,2,815.6849999795668,0,1,1,81513,WMM2,826905,false,false,1063,image-keyboard-response,18
true,9,2,4,2,true,d,false,false,0.0-2.0-0.36-0.326-3.326,1,1,0,68,false,stim,false,2,490.9450000268407,0,1,1,81513,WMM2,828920,false,true,1066,image-keyboard-response,19
true,9,2,4,0,false,q,true,false,0.0-2.0-0.36-0.327-3.327,1,1,0,68,false,stim,false,0,608.585000038147,0,1,0,81513,WMM2,831044,false,false,1069,image-keyboard-response,20
true,9,0,4,0,true,q,false,true,0.0-2.0-0.36-0.328-3.328,1,1,0,81,false,stim,false,0,874.5599999674596,0,1,0,81513,WMM2,833438,false,false,1072,image-keyboard-response,21
true,9,0,4,0,true,q,false,true,0.0-2.0-0.36-0.329-3.329,1,1,0,81,false,stim,false,0,666.7600000509992,0,0,2,81513,WMM2,835637,false,false,1075,image-keyboard-response,22
true,9,0,4,0,true,q,false,true,0.0-2.0-0.36-0.330-3.330,1,1,0,81,false,stim,false,0,716.7149999877438,0,1,0,81513,WMM2,837883,false,false,1078,image-keyboard-response,23
true,9,0,4,0,true,q,false,true,0.0-2.0-0.36-0.331-3.331,1,1,0,81,false,stim,false,0,587.4349999940023,0,0,2,81513,WMM2,839991,false,false,1081,image-keyboard-response,24
true,9,0,4,0,true,q,false,true,0.0-2.0-0.36-0.332-3.332,1,1,0,81,false,stim,false,0,442.74500000756234,0,0,2,81513,WMM2,841965,false,false,1084,image-keyboard-response,25
true,9,0,4,0,true,q,false,true,0.0-2.0-0.37-0.333-3.333,1,1,0,81,false,stim,false,0,618.6599999782629,0,1,0,81513,WMM2,844102,false,false,1087,image-keyboard-response,26
true,9,0,4,0,true,q,false,true,0.0-2.0-0.37-0.334-3.334,1,1,0,81,false,stim,false,0,466.88999998150393,0,0,2,81513,WMM2,846088,false,false,1090,image-keyboard-response,27
true,9,0,4,0,true,q,false,true,0.0-2.0-0.37-0.335-3.335,1,1,0,81,false,stim,false,0,341.67499997420236,0,1,0,81513,WMM2,847962,false,false,1093,image-keyboard-response,28
true,9,2,4,2,true,d,false,false,0.0-2.0-0.37-0.336-3.336,1,1,0,68,false,stim,false,2,481.45999998087063,0,1,1,81513,WMM2,849967,false,true,1096,image-keyboard-response,29
true,9,0,4,0,true,q,false,true,0.0-2.0-0.37-0.337-3.337,1,1,0,81,false,stim,false,0,507.21999997040257,0,1,0,81513,WMM2,851995,false,false,1099,image-keyboard-response,30
true,9,2,4,2,true,d,false,false,0.0-2.0-0.37-0.338-3.338,1,1,0,68,false,stim,false,2,605.7249999721535,0,1,1,81513,WMM2,854137,false,true,1102,image-keyboard-response,31
true,9,0,4,0,true,q,false,true,0.0-2.0-0.37-0.339-3.339,1,1,0,81,false,stim,false,0,577.7000000234693,0,0,2,81513,WMM2,856237,false,false,1105,image-keyboard-response,32
true,9,1,4,2,false,d,true,true,0.0-2.0-0.37-0.340-3.340,1,1,0,90,false,stim,false,2,591.2299999617971,0,1,1,81513,WMM2,858356,false,true,1108,image-keyboard-response,33
true,10,0,3,2,false,d,false,false,0.0-2.0-0.37-0.341-3.341,1,1,0,81,true,stim,true,0,664.2550000105985,0,0,2,81513,WMM2,860541,false,false,1111,image-keyboard-response,1
true,10,0,3,2,false,d,false,false,0.0-2.0-0.38-0.342-3.342,1,1,0,81,false,stim,true,0,639.1600000206381,0,0,2,81513,WMM2,862691,false,false,1114,image-keyboard-response,2
true,10,2,3,2,true,d,false,true,0.0-2.0-0.38-0.343-3.343,1,1,0,68,false,stim,false,0,730.5899999919347,0,0,2,81513,WMM2,864939,false,false,1117,image-keyboard-response,3
true,10,0,3,0,true,q,false,true,0.0-2.0-0.38-0.344-3.344,1,1,0,81,false,stim,false,0,618.8100000144914,0,1,0,81513,WMM2,867087,false,false,1120,image-keyboard-response,4
true,10,0,3,0,true,q,false,true,0.0-2.0-0.38-0.345-3.345,1,1,0,81,false,stim,false,0,479.1700000059791,0,1,0,81513,WMM2,869086,false,false,1123,image-keyboard-response,5
true,10,1,3,2,false,d,true,false,0.0-2.0-0.38-0.346-3.346,1,1,0,90,false,stim,false,2,593.3950000326149,0,1,1,81513,WMM2,871204,false,false,1126,image-keyboard-response,6
true,10,0,3,0,true,q,false,true,0.0-2.0-0.38-0.347-3.347,1,1,0,81,false,stim,false,0,624.294999986887,0,1,0,81513,WMM2,873347,false,false,1129,image-keyboard-response,7
true,10,2,3,2,true,d,false,true,0.0-2.0-0.38-0.348-3.348,1,1,0,68,false,stim,false,0,660.7849999563769,0,0,2,81513,WMM2,875534,false,false,1132,image-keyboard-response,8
true,10,1,3,2,false,d,true,false,0.0-2.0-0.38-0.349-3.349,1,1,0,90,false,stim,false,2,808.0099999788217,0,1,1,81513,WMM2,877877,false,false,1135,image-keyboard-response,9
true,10,2,3,2,true,d,false,true,0.0-2.0-0.38-0.350-3.350,1,1,0,68,false,stim,false,2,755.6099999928847,0,1,1,81513,WMM2,880150,false,false,1138,image-keyboard-response,10
true,10,0,3,0,true,q,false,true,0.0-2.0-0.39-0.351-3.351,1,1,0,81,false,stim,false,0,583.8950000470504,0,1,0,81513,WMM2,882255,false,false,1141,image-keyboard-response,11
true,10,2,3,2,true,d,false,true,0.0-2.0-0.39-0.352-3.352,1,1,0,68,false,stim,false,2,573.7599999993108,0,1,1,81513,WMM2,884359,false,false,1144,image-keyboard-response,12
true,10,0,3,0,true,q,false,true,0.0-2.0-0.39-0.353-3.353,1,1,0,81,false,stim,false,0,583.7300000130199,0,1,0,81513,WMM2,886468,false,false,1147,image-keyboard-response,13
true,10,0,3,0,true,q,false,true,0.0-2.0-0.39-0.354-3.354,1,1,0,81,false,stim,false,0,582.8699999838136,0,1,0,81513,WMM2,888578,false,false,1150,image-keyboard-response,14
true,10,2,3,2,true,d,false,true,0.0-2.0-0.39-0.355-3.355,1,1,0,68,false,stim,false,2,713.5199999902397,0,1,1,81513,WMM2,890825,false,false,1153,image-keyboard-response,15
true,10,2,3,2,true,d,false,true,0.0-2.0-0.39-0.356-3.356,1,1,0,68,false,stim,false,0,662.3900000122376,0,0,2,81513,WMM2,893005,false,false,1156,image-keyboard-response,16
true,10,2,3,2,true,d,false,true,0.0-2.0-0.39-0.357-3.357,1,1,0,68,false,stim,false,0,546.50999995647,0,0,2,81513,WMM2,895068,false,false,1159,image-keyboard-response,17
true,10,2,3,2,true,d,false,false,0.0-2.0-0.39-0.358-3.358,1,1,0,68,false,stim,false,0,420.8900000085123,0,0,2,81513,WMM2,897015,false,true,1162,image-keyboard-response,18
true,10,2,3,2,true,d,false,false,0.0-2.0-0.39-0.359-3.359,1,1,0,68,false,stim,false,2,679.1249999660067,0,1,1,81513,WMM2,899218,false,true,1165,image-keyboard-response,19
true,10,0,3,0,true,q,false,true,0.0-2.0-0.40-0.360-3.360,1,1,0,81,false,stim,false,0,551.2749999761581,0,1,0,81513,WMM2,901291,false,false,1168,image-keyboard-response,20
true,10,2,3,2,true,d,false,true,0.0-2.0-0.40-0.361-3.361,1,1,0,68,false,stim,false,2,388.08999996399507,0,0,1,81513,WMM2,903205,false,false,1171,image-keyboard-response,21
true,10,2,3,2,true,d,false,true,0.0-2.0-0.40-0.362-3.362,1,1,0,68,false,stim,false,2,578.9600000134669,0,0,1,81513,WMM2,905302,false,false,1174,image-keyboard-response,22
true,10,2,3,2,true,d,false,true,0.0-2.0-0.40-0.363-3.363,1,1,0,68,false,stim,false,0,480.18499999307096,0,1,2,81513,WMM2,907314,false,false,1177,image-keyboard-response,23
true,10,0,3,0,true,q,false,true,0.0-2.0-0.40-0.364-3.364,1,1,0,81,false,stim,false,0,344.95500003686175,0,0,0,81513,WMM2,909182,false,false,1180,image-keyboard-response,24
true,10,2,3,2,true,d,false,true,0.0-2.0-0.40-0.365-3.365,1,1,0,68,false,stim,false,2,516.6949999984354,0,0,1,81513,WMM2,911219,false,false,1183,image-keyboard-response,25
true,10,2,3,2,true,d,false,true,0.0-2.0-0.40-0.366-3.366,1,1,0,68,false,stim,false,0,454.94500000495464,0,1,2,81513,WMM2,913205,false,false,1186,image-keyboard-response,26
true,10,0,3,0,true,q,false,true,0.0-2.0-0.40-0.367-3.367,1,1,0,81,false,stim,false,0,448.48000002093613,0,0,0,81513,WMM2,915172,false,false,1189,image-keyboard-response,27
true,10,2,3,2,true,d,false,true,0.0-2.0-0.40-0.368-3.368,1,1,0,68,false,stim,false,0,423.14000002807006,0,1,2,81513,WMM2,917121,false,false,1192,image-keyboard-response,28
true,10,0,3,0,true,q,false,true,0.0-2.0-0.41-0.369-3.369,1,1,0,81,false,stim,false,0,510.71000000229105,0,0,0,81513,WMM2,919162,false,false,1195,image-keyboard-response,29
true,10,2,3,2,true,d,false,false,0.0-2.0-0.41-0.370-3.370,1,1,0,68,false,stim,false,0,441.02000002749264,0,1,2,81513,WMM2,921127,false,true,1198,image-keyboard-response,30
true,11,0,1,2,false,d,false,false,0.0-2.0-0.41-0.371-3.371,0,0,1,81,true,stim,true,0,723.3600000035949,0,0,0,81513,WMM2,923402,false,false,1201,image-keyboard-response,1
true,11,2,1,0,false,q,false,true,0.0-2.0-0.41-0.372-3.372,0,0,1,68,false,stim,true,2,668.1300000054762,0,0,1,81513,WMM2,925602,false,true,1204,image-keyboard-response,2
true,11,0,1,2,false,d,false,true,0.0-2.0-0.41-0.373-3.373,0,0,1,81,false,stim,true,0,578.8349999929778,0,0,0,81513,WMM2,927715,false,true,1207,image-keyboard-response,3
true,11,2,1,2,true,d,false,true,0.0-2.0-0.41-0.374-3.374,0,0,1,68,false,stim,false,2,533.1899999873713,0,1,2,81513,WMM2,929767,false,false,1210,image-keyboard-response,4
true,11,2,1,2,true,d,false,true,0.0-2.0-0.41-0.375-3.375,0,0,1,68,false,stim,false,2,577.2549999528565,0,1,2,81513,WMM2,931875,false,false,1213,image-keyboard-response,5
true,11,2,1,0,false,q,false,true,0.0-2.0-0.41-0.376-3.376,0,0,1,68,false,stim,true,2,454.5849999994971,0,0,1,81513,WMM2,933863,false,true,1216,image-keyboard-response,6
true,11,2,1,0,false,q,false,false,0.0-2.0-0.41-0.377-3.377,0,0,1,68,false,stim,true,2,482.2099999873899,0,0,1,81513,WMM2,935875,false,false,1219,image-keyboard-response,7
true,11,2,1,0,false,q,false,false,0.0-2.0-0.42-0.378-3.378,0,0,1,68,false,stim,true,2,443.98500001989305,0,0,1,81513,WMM2,937851,false,false,1222,image-keyboard-response,8
true,11,1,1,0,false,q,true,false,0.0-2.0-0.42-0.379-3.379,0,0,1,90,false,stim,false,2,499.75500005530193,0,0,1,81513,WMM2,939874,false,false,1225,image-keyboard-response,9
true,11,2,1,2,true,d,false,true,0.0-2.0-0.42-0.380-3.380,0,0,1,68,false,stim,false,2,624.0249999682419,0,1,2,81513,WMM2,942014,false,false,1228,image-keyboard-response,10
true,11,2,1,2,true,d,false,true,0.0-2.0-0.42-0.381-3.381,0,0,1,68,false,stim,false,2,695.4799999948591,0,1,2,81513,WMM2,944243,false,false,1231,image-keyboard-response,11
true,11,0,1,2,false,d,false,false,0.0-2.0-0.42-0.382-3.382,0,0,1,81,false,stim,true,0,546.2050000205636,0,0,0,81513,WMM2,946320,false,false,1234,image-keyboard-response,12
true,11,0,1,2,false,d,false,false,0.0-2.0-0.42-0.383-3.383,0,0,1,81,false,stim,true,0,561.2199999741279,0,0,0,81513,WMM2,948393,false,false,1237,image-keyboard-response,13
true,11,0,1,0,true,q,false,true,0.0-2.0-0.42-0.384-3.384,0,0,1,81,false,stim,false,2,1201.215000008233,0,0,1,81513,WMM2,951122,false,false,1240,image-keyboard-response,14
true,11,2,1,2,true,d,false,true,0.0-2.0-0.42-0.385-3.385,0,0,1,68,false,stim,false,0,533.205000043381,0,0,0,81513,WMM2,953186,false,false,1243,image-keyboard-response,15
true,11,2,1,2,true,d,false,true,0.0-2.0-0.42-0.386-3.386,0,0,1,68,false,stim,false,2,571.4099999750033,0,1,2,81513,WMM2,955288,false,false,1246,image-keyboard-response,16
true,11,2,1,2,true,d,false,true,0.0-2.0-0.43-0.387-3.387,0,0,1,68,false,stim,false,2,471.6649999609217,0,1,2,81513,WMM2,957291,false,false,1249,image-keyboard-response,17
true,11,2,1,2,true,d,false,true,0.0-2.0-0.43-0.388-3.388,0,0,1,68,false,stim,false,0,500.705000013113,0,0,0,81513,WMM2,959316,false,false,1252,image-keyboard-response,18
true,11,2,1,2,true,d,false,true,0.0-2.0-0.43-0.389-3.389,0,0,1,68,false,stim,false,2,622.9750000056811,0,1,2,81513,WMM2,961455,false,false,1255,image-keyboard-response,19
true,11,0,1,0,true,q,false,true,0.0-2.0-0.43-0.390-3.390,0,0,1,81,false,stim,false,2,523.1649999623187,0,0,1,81513,WMM2,963498,false,false,1258,image-keyboard-response,20
true,11,0,1,0,true,q,false,true,0.0-2.0-0.43-0.391-3.391,0,0,1,81,false,stim,false,2,525.6949999602512,0,1,1,81513,WMM2,965551,false,false,1261,image-keyboard-response,21
true,11,2,1,2,true,d,false,true,0.0-2.0-0.43-0.392-3.392,0,0,1,68,false,stim,false,0,534.1699999989942,0,1,0,81513,WMM2,967605,false,false,1264,image-keyboard-response,22
true,11,2,1,2,true,d,false,true,0.0-2.0-0.43-0.393-3.393,0,0,1,68,false,stim,false,2,463.3900000480935,0,0,2,81513,WMM2,969601,false,false,1267,image-keyboard-response,23
true,11,2,1,2,true,d,false,true,0.0-2.0-0.43-0.394-3.394,0,0,1,68,false,stim,false,0,597.3200000007637,0,1,0,81513,WMM2,971720,false,false,1270,image-keyboard-response,24
true,11,0,1,0,true,q,false,true,0.0-2.0-0.43-0.395-3.395,0,0,1,81,false,stim,false,2,482.85499995108694,0,1,1,81513,WMM2,973730,false,false,1273,image-keyboard-response,25
true,11,2,1,2,true,d,false,true,0.0-2.0-0.44-0.396-3.396,0,0,1,68,false,stim,false,2,711.0300000058487,0,0,2,81513,WMM2,975976,false,false,1276,image-keyboard-response,26
true,11,2,1,2,true,d,false,true,0.0-2.0-0.44-0.397-3.397,0,0,1,68,false,stim,false,2,515.4149999725632,0,0,2,81513,WMM2,978012,false,false,1279,image-keyboard-response,27
true,11,2,1,2,true,d,false,false,0.0-2.0-0.44-0.398-3.398,0,0,1,68,false,stim,false,0,615.2700000093319,0,1,0,81513,WMM2,980157,false,true,1282,image-keyboard-response,28
true,11,0,1,0,true,q,false,true,0.0-2.0-0.44-0.399-3.399,0,0,1,81,false,stim,false,2,454.92500002728775,0,1,1,81513,WMM2,982138,false,false,1285,image-keyboard-response,29
true,11,0,1,0,true,q,false,true,0.0-2.0-0.44-0.400-3.400,0,0,1,81,false,stim,false,2,556.5100000239909,0,1,1,81513,WMM2,984213,false,false,1288,image-keyboard-response,30
true,12,0,2,0,true,q,false,true,0.0-2.0-0.44-0.401-3.401,1,1,0,81,true,stim,false,0,509.699999995064,0,1,1,81513,WMM2,986249,false,false,1291,image-keyboard-response,1
true,12,2,2,1,false,z,false,false,0.0-2.0-0.44-0.402-3.402,1,1,0,68,false,stim,true,2,643.8750000088476,0,0,2,81513,WMM2,988432,false,false,1294,image-keyboard-response,2
true,12,2,2,2,true,d,false,true,0.0-2.0-0.44-0.403-3.403,1,1,0,68,false,stim,false,2,561.2749999854714,0,1,0,81513,WMM2,990517,false,false,1297,image-keyboard-response,3
true,12,2,2,2,true,d,false,true,0.0-2.0-0.44-0.404-3.404,1,1,0,68,false,stim,false,2,527.8999999864027,0,1,0,81513,WMM2,992570,false,false,1300,image-keyboard-response,4
true,12,2,2,2,true,d,false,true,0.0-2.0-0.45-0.405-3.405,1,1,0,68,false,stim,false,2,452.83999998355284,0,1,0,81513,WMM2,994552,false,false,1303,image-keyboard-response,5
true,12,2,2,1,false,z,false,false,0.0-2.0-0.45-0.406-3.406,1,1,0,68,false,stim,true,2,552.1650000009686,0,0,2,81513,WMM2,996627,false,false,1306,image-keyboard-response,6
true,12,1,2,1,true,z,false,true,0.0-2.0-0.45-0.407-3.407,1,1,0,90,false,stim,false,2,679.6549999853596,0,0,2,81513,WMM2,998829,false,false,1309,image-keyboard-response,7
true,12,1,2,1,true,z,false,true,0.0-2.0-0.45-0.408-3.408,1,1,0,90,false,stim,false,2,588.6649999883957,0,0,2,81513,WMM2,1000952,false,false,1312,image-keyboard-response,8
true,12,0,2,0,true,q,false,true,0.0-2.0-0.45-0.409-3.409,1,1,0,81,false,stim,false,0,479.12500001257285,0,1,1,81513,WMM2,1002961,false,false,1315,image-keyboard-response,9
true,12,2,2,2,true,d,false,true,0.0-2.0-0.45-0.410-3.410,1,1,0,68,false,stim,false,2,653.3150000032037,0,1,0,81513,WMM2,1005135,false,false,1318,image-keyboard-response,10
true,12,2,2,2,true,d,false,true,0.0-2.0-0.45-0.411-3.411,1,1,0,68,false,stim,false,2,522.2850000136532,0,1,0,81513,WMM2,1007177,false,false,1321,image-keyboard-response,11
true,12,1,2,0,false,q,true,false,0.0-2.0-0.45-0.412-3.412,1,1,0,90,false,stim,false,0,648.8649999955669,0,1,1,81513,WMM2,1009349,false,false,1324,image-keyboard-response,12
true,12,0,2,0,true,q,false,true,0.0-2.0-0.45-0.413-3.413,1,1,0,81,false,stim,false,0,480.234999966342,0,1,1,81513,WMM2,1011345,false,false,1327,image-keyboard-response,13
true,12,2,2,2,true,d,false,true,0.0-2.0-0.46-0.414-3.414,1,1,0,68,false,stim,false,2,569.4550000480376,0,1,0,81513,WMM2,1013443,false,false,1330,image-keyboard-response,14
true,12,0,2,0,true,q,false,true,0.0-2.0-0.46-0.415-3.415,1,1,0,81,false,stim,false,0,550.4450000007637,0,1,1,81513,WMM2,1015520,false,false,1333,image-keyboard-response,15
true,12,2,2,2,true,d,false,true,0.0-2.0-0.46-0.416-3.416,1,1,0,68,false,stim,false,2,502.5799999712035,0,1,0,81513,WMM2,1017548,false,false,1336,image-keyboard-response,16
true,12,1,2,1,true,z,false,true,0.0-2.0-0.46-0.417-3.417,1,1,0,90,false,stim,false,2,687.5850000069477,0,0,2,81513,WMM2,1019764,false,false,1339,image-keyboard-response,17
true,12,0,2,0,true,q,false,true,0.0-2.0-0.46-0.418-3.418,1,1,0,81,false,stim,false,0,418.66500000469387,0,1,1,81513,WMM2,1021699,false,false,1342,image-keyboard-response,18
true,12,0,2,0,true,q,false,false,0.0-2.0-0.46-0.419-3.419,1,1,0,81,false,stim,false,0,520.95500001451,0,1,1,81513,WMM2,1023747,false,true,1345,image-keyboard-response,19
true,12,2,2,2,true,d,false,true,0.0-2.0-0.46-0.420-3.420,1,1,0,68,false,stim,false,2,652.6500000036322,0,1,0,81513,WMM2,1025919,false,false,1348,image-keyboard-response,20
true,12,1,2,1,true,z,false,false,0.0-2.0-0.46-0.421-3.421,1,1,0,90,false,stim,false,2,665.7000000122935,0,0,2,81513,WMM2,1028122,false,true,1351,image-keyboard-response,21
true,12,0,2,1,false,z,true,false,0.0-2.0-0.46-0.422-3.422,1,1,0,81,false,stim,false,2,696.5000000200234,0,0,2,81513,WMM2,1030347,false,false,1354,image-keyboard-response,22
true,12,0,2,0,true,q,false,true,0.0-2.0-0.47-0.423-3.423,1,1,0,81,false,stim,false,0,1236.800000013318,0,1,1,81513,WMM2,1033109,false,false,1357,image-keyboard-response,23
true,12,1,2,1,true,z,false,true,0.0-2.0-0.47-0.424-3.424,1,1,0,90,false,stim,false,2,453.63999996334314,0,0,2,81513,WMM2,1035088,false,false,1360,image-keyboard-response,24
true,12,2,2,2,true,d,false,true,0.0-2.0-0.47-0.425-3.425,1,1,0,68,false,stim,false,2,495.3150000073947,0,0,0,81513,WMM2,1037114,false,false,1363,image-keyboard-response,25
true,12,1,2,1,true,z,false,true,0.0-2.0-0.47-0.426-3.426,1,1,0,90,false,stim,false,2,692.2650000196882,0,0,2,81513,WMM2,1039327,false,false,1366,image-keyboard-response,26
true,12,0,2,0,true,q,false,true,0.0-2.0-0.47-0.427-3.427,1,1,0,81,false,stim,false,0,389.80999996419996,0,1,1,81513,WMM2,1041246,false,false,1369,image-keyboard-response,27
true,12,0,2,0,true,q,false,true,0.0-2.0-0.47-0.428-3.428,1,1,0,81,false,stim,false,0,598.9249999984168,0,1,1,81513,WMM2,1043377,false,false,1372,image-keyboard-response,28
true,12,2,2,2,true,d,false,true,0.0-2.0-0.47-0.429-3.429,1,1,0,68,false,stim,false,2,551.9199999980628,0,0,0,81513,WMM2,1045458,false,false,1375,image-keyboard-response,29
true,12,2,2,2,true,d,false,false,0.0-2.0-0.47-0.430-3.430,1,1,0,68,false,stim,false,2,447.15999998152256,0,0,0,81513,WMM2,1047420,false,true,1378,image-keyboard-response,30
true,13,0,1,2,false,d,true,false,0.0-2.0-0.47-0.431-3.431,0,1,0,81,true,stim,false,1,648.3499999740161,0,0,2,81513,WMM2,1049592,false,false,1381,image-keyboard-response,1
true,13,1,1,2,false,d,false,false,0.0-2.0-0.48-0.432-3.432,0,1,0,90,false,stim,true,1,800.8050000062212,0,0,2,81513,WMM2,1051914,false,false,1384,image-keyboard-response,2
true,13,2,1,0,false,q,false,false,0.0-2.0-0.48-0.433-3.433,0,1,0,68,false,stim,true,2,757.0999999879859,0,0,0,81513,WMM2,1054207,false,false,1387,image-keyboard-response,3
true,13,2,1,0,false,q,false,false,0.0-2.0-0.48-0.434-3.434,0,1,0,68,false,stim,true,2,495.1249999576248,0,0,0,81513,WMM2,1056221,false,false,1390,image-keyboard-response,4
true,13,1,1,2,false,d,false,false,0.0-2.0-0.48-0.435-3.435,0,1,0,90,false,stim,true,1,1003.0250000418164,0,0,2,81513,WMM2,1058749,false,false,1393,image-keyboard-response,5
true,13,0,1,0,true,q,false,true,0.0-2.0-0.48-0.436-3.436,0,1,0,81,false,stim,false,0,566.7849999736063,0,1,1,81513,WMM2,1060831,false,false,1396,image-keyboard-response,6
true,13,0,1,0,true,q,false,true,0.0-2.0-0.48-0.437-3.437,0,1,0,81,false,stim,false,0,682.0000000298023,0,1,1,81513,WMM2,1063024,false,false,1399,image-keyboard-response,7
true,13,0,1,0,true,q,false,true,0.0-2.0-0.48-0.438-3.438,0,1,0,81,false,stim,false,2,956.8399999989197,0,0,0,81513,WMM2,1065528,false,false,1402,image-keyboard-response,8
true,13,2,1,2,true,d,false,true,0.0-2.0-0.48-0.439-3.439,0,1,0,68,false,stim,false,1,957.1349999750964,0,0,2,81513,WMM2,1068015,false,false,1405,image-keyboard-response,9
true,13,0,1,0,true,q,false,true,0.0-2.0-0.48-0.440-3.440,0,1,0,81,false,stim,false,0,576.4150000177324,0,1,1,81513,WMM2,1070111,false,false,1408,image-keyboard-response,10
true,13,0,1,0,true,q,false,true,0.0-2.0-0.49-0.441-3.441,0,1,0,81,false,stim,false,2,564.2800000496209,0,0,0,81513,WMM2,1072199,false,false,1411,image-keyboard-response,11
true,13,2,1,2,true,d,false,true,0.0-2.0-0.49-0.442-3.442,0,1,0,68,false,stim,false,1,421.64499999489635,0,0,2,81513,WMM2,1074159,false,false,1414,image-keyboard-response,12
true,13,0,1,0,true,q,false,true,0.0-2.0-0.49-0.443-3.443,0,1,0,81,false,stim,false,0,368.2650000555441,0,1,1,81513,WMM2,1076060,false,false,1417,image-keyboard-response,13
true,13,0,1,0,true,q,false,true,0.0-2.0-0.49-0.444-3.444,0,1,0,81,false,stim,false,0,382.48999998904765,0,1,1,81513,WMM2,1077965,false,false,1420,image-keyboard-response,14
true,13,0,1,0,true,q,false,true,0.0-2.0-0.49-0.445-3.445,0,1,0,81,false,stim,false,0,394.21499997843057,0,1,1,81513,WMM2,1079884,false,false,1423,image-keyboard-response,15
true,13,2,1,2,true,d,false,false,0.0-2.0-0.49-0.446-3.446,0,1,0,68,false,stim,false,1,600.0449999701232,0,0,2,81513,WMM2,1082007,false,true,1426,image-keyboard-response,16
true,13,0,1,0,true,q,false,true,0.0-2.0-0.49-0.447-3.447,0,1,0,81,false,stim,false,2,595.9099999745376,0,0,0,81513,WMM2,1084130,false,false,1429,image-keyboard-response,17
true,13,0,1,0,true,q,false,true,0.0-2.0-0.49-0.448-3.448,0,1,0,81,false,stim,false,2,407.245000009425,0,0,0,81513,WMM2,1086068,false,false,1432,image-keyboard-response,18
true,13,2,1,2,true,d,false,true,0.0-2.0-0.49-0.449-3.449,0,1,0,68,false,stim,false,1,504.480000003241,0,0,2,81513,WMM2,1088101,false,false,1435,image-keyboard-response,19
true,13,0,1,0,true,q,false,true,0.0-2.0-0.50-0.450-3.450,0,1,0,81,false,stim,false,0,439.71000000601634,0,1,1,81513,WMM2,1090070,false,false,1438,image-keyboard-response,20
true,13,2,1,2,true,d,false,true,0.0-2.0-0.50-0.451-3.451,0,1,0,68,false,stim,false,1,557.3200000217184,0,1,2,81513,WMM2,1092156,false,false,1441,image-keyboard-response,21
true,13,0,1,0,true,q,false,true,0.0-2.0-0.50-0.452-3.452,0,1,0,81,false,stim,false,2,450.6299999775365,0,1,0,81513,WMM2,1094126,false,false,1444,image-keyboard-response,22
true,13,0,1,0,true,q,false,true,0.0-2.0-0.50-0.453-3.453,0,1,0,81,false,stim,false,0,508.67000001017004,0,0,1,81513,WMM2,1096158,false,false,1447,image-keyboard-response,23
true,13,2,1,2,true,d,false,true,0.0-2.0-0.50-0.454-3.454,0,1,0,68,false,stim,false,1,509.53999999910593,0,1,2,81513,WMM2,1098193,false,false,1450,image-keyboard-response,24
true,13,0,1,0,true,q,false,true,0.0-2.0-0.50-0.455-3.455,0,1,0,81,false,stim,false,0,399.48999998159707,0,0,1,81513,WMM2,1100114,false,false,1453,image-keyboard-response,25
true,13,0,1,0,true,q,false,true,0.0-2.0-0.50-0.456-3.456,0,1,0,81,false,stim,false,2,346.3099999935366,0,1,0,81513,WMM2,1101989,false,false,1456,image-keyboard-response,26
true,13,0,1,0,true,q,false,true,0.0-2.0-0.50-0.457-3.457,0,1,0,81,false,stim,false,2,475.0950000016019,0,1,0,81513,WMM2,1103993,false,false,1459,image-keyboard-response,27
true,13,2,1,2,true,d,false,true,0.0-2.0-0.50-0.458-3.458,0,1,0,68,false,stim,false,1,466.8800000217743,0,1,2,81513,WMM2,1105984,false,false,1462,image-keyboard-response,28
true,13,0,1,0,true,q,false,true,0.0-2.0-0.51-0.459-3.459,0,1,0,81,false,stim,false,2,728.9100000052713,0,1,0,81513,WMM2,1108232,false,false,1465,image-keyboard-response,29
true,13,0,1,0,true,q,false,true,0.0-2.0-0.51-0.460-3.460,0,1,0,81,false,stim,false,2,844.9949999921955,0,1,0,81513,WMM2,1110596,false,false,1468,image-keyboard-response,30
true,14,0,0,0,true,q,false,true,0.0-2.0-0.51-0.461-3.461,1,0,1,81,true,stim,false,0,1073.4550000051968,0,0,1,81513,WMM2,1234222,false,false,1591,image-keyboard-response,1
true,14,2,0,2,true,d,false,true,0.0-2.0-0.51-0.462-3.462,1,0,1,68,false,stim,false,2,544.1649999702349,0,1,2,81513,WMM2,1236295,false,false,1594,image-keyboard-response,2
true,14,0,0,0,true,q,false,true,0.0-2.0-0.51-0.463-3.463,1,0,1,81,false,stim,false,0,510.3450000169687,0,0,1,81513,WMM2,1238325,false,false,1597,image-keyboard-response,3
true,14,2,0,2,true,d,false,true,0.0-2.0-0.51-0.464-3.464,1,0,1,68,false,stim,false,2,528.0299999867566,0,1,2,81513,WMM2,1240372,false,false,1600,image-keyboard-response,4
true,14,0,0,0,true,q,false,true,0.0-2.0-0.51-0.465-3.465,1,0,1,81,false,stim,false,0,295.8500000531785,0,0,1,81513,WMM2,1242217,false,false,1603,image-keyboard-response,5
true,14,0,0,0,true,q,false,true,0.0-2.0-0.51-0.466-3.466,1,0,1,81,false,stim,false,0,622.3400000017136,0,1,0,81513,WMM2,1244358,false,false,1606,image-keyboard-response,6
true,14,2,0,2,true,d,false,true,0.0-2.0-0.51-0.467-3.467,1,0,1,68,false,stim,false,2,537.8849999979138,0,1,2,81513,WMM2,1246409,false,false,1609,image-keyboard-response,7
true,14,2,0,2,true,d,false,true,0.0-2.0-0.52-0.468-3.468,1,0,1,68,false,stim,false,2,520.1100000413135,0,1,2,81513,WMM2,1248461,false,false,1612,image-keyboard-response,8
true,14,0,0,0,true,q,false,true,0.0-2.0-0.52-0.469-3.469,1,0,1,81,false,stim,false,0,452.11499999277294,0,1,0,81513,WMM2,1250440,false,false,1615,image-keyboard-response,9
true,14,0,0,0,true,q,false,true,0.0-2.0-0.52-0.470-3.470,1,0,1,81,false,stim,false,0,359.88499998347834,0,1,0,81513,WMM2,1252331,false,false,1618,image-keyboard-response,10
true,14,2,0,2,true,d,false,true,0.0-2.0-0.52-0.471-3.471,1,0,1,68,false,stim,false,2,741.3150000502355,0,1,2,81513,WMM2,1254597,false,false,1621,image-keyboard-response,11
true,14,0,0,0,true,q,false,true,0.0-2.0-0.52-0.472-3.472,1,0,1,81,false,stim,false,0,466.3750000181608,0,0,1,81513,WMM2,1256583,false,false,1624,image-keyboard-response,12
true,14,2,0,2,true,d,false,true,0.0-2.0-0.52-0.473-3.473,1,0,1,68,false,stim,false,2,679.5300000230782,0,1,2,81513,WMM2,1258782,false,false,1627,image-keyboard-response,13
true,14,0,0,0,true,q,false,true,0.0-2.0-0.52-0.474-3.474,1,0,1,81,false,stim,false,0,536.1750000156462,0,0,1,81513,WMM2,1260857,false,false,1630,image-keyboard-response,14
true,14,0,0,0,true,q,false,true,0.0-2.0-0.52-0.475-3.475,1,0,1,81,false,stim,false,0,499.6749999700114,0,1,0,81513,WMM2,1262883,false,false,1633,image-keyboard-response,15
true,14,0,0,0,true,q,false,false,0.0-2.0-0.52-0.476-3.476,1,0,1,81,false,stim,false,0,461.14999998826534,0,0,1,81513,WMM2,1264875,false,true,1636,image-keyboard-response,16
true,14,2,0,2,true,d,false,true,0.0-2.0-0.53-0.477-3.477,1,0,1,68,false,stim,false,2,603.8850000477396,0,1,2,81513,WMM2,1267001,false,false,1639,image-keyboard-response,17
true,14,0,0,2,false,d,true,false,0.0-2.0-0.53-0.478-3.478,1,0,1,81,false,stim,false,2,435.6550000375137,0,1,2,81513,WMM2,1268967,false,false,1642,image-keyboard-response,18
true,14,0,0,0,true,q,false,true,0.0-2.0-0.53-0.479-3.479,1,0,1,81,false,stim,false,0,417.7800000179559,0,1,0,81513,WMM2,1270907,false,false,1645,image-keyboard-response,19
true,14,2,0,2,true,d,false,true,0.0-2.0-0.53-0.480-3.480,1,0,1,68,false,stim,false,2,599.7750000096858,0,1,2,81513,WMM2,1273030,false,false,1648,image-keyboard-response,20
true,14,0,0,0,true,q,false,true,0.0-2.0-0.53-0.481-3.481,1,0,1,81,false,stim,false,0,525.7299999939278,0,1,0,81513,WMM2,1275083,false,false,1651,image-keyboard-response,21
true,14,0,0,0,true,q,false,true,0.0-2.0-0.53-0.482-3.482,1,0,1,81,false,stim,false,0,488.8649999629706,0,1,0,81513,WMM2,1277108,false,false,1654,image-keyboard-response,22
true,14,0,0,0,true,q,false,true,0.0-2.0-0.53-0.483-3.483,1,0,1,81,false,stim,false,0,627.939999976661,0,0,1,81513,WMM2,1279263,false,false,1657,image-keyboard-response,23
true,14,0,0,0,true,q,false,true,0.0-2.0-0.53-0.484-3.484,1,0,1,81,false,stim,false,0,563.5050000273623,0,0,1,81513,WMM2,1281356,false,false,1660,image-keyboard-response,24
true,14,0,0,0,true,q,false,true,0.0-2.0-0.53-0.485-3.485,1,0,1,81,false,stim,false,0,404.62500002468005,0,0,1,81513,WMM2,1283292,false,false,1663,image-keyboard-response,25
true,14,0,0,0,true,q,false,true,0.0-2.0-0.54-0.486-3.486,1,0,1,81,false,stim,false,0,621.0350000183098,0,1,0,81513,WMM2,1285438,false,false,1666,image-keyboard-response,26
true,14,0,0,0,true,q,false,true,0.0-2.0-0.54-0.487-3.487,1,0,1,81,false,stim,false,0,467.57500001695007,0,0,1,81513,WMM2,1287434,false,false,1669,image-keyboard-response,27
true,14,0,0,0,true,q,false,true,0.0-2.0-0.54-0.488-3.488,1,0,1,81,false,stim,false,0,398.69000000180677,0,1,0,81513,WMM2,1289354,false,false,1672,image-keyboard-response,28
true,14,2,0,2,true,d,false,true,0.0-2.0-0.54-0.489-3.489,1,0,1,68,false,stim,false,2,601.009999983944,0,1,2,81513,WMM2,1291485,false,false,1675,image-keyboard-response,29
true,14,0,0,0,true,q,false,false,0.0-2.0-0.54-0.490-3.490,1,0,1,81,false,stim,false,0,528.4699999610893,0,1,1,81513,WMM2,1293542,false,true,1678,image-keyboard-response,30
true,14,0,0,0,true,q,false,false,0.0-2.0-0.54-0.491-3.491,1,0,1,81,false,stim,false,0,723.63000002224,0,1,1,81513,WMM2,1295794,false,true,1681,image-keyboard-response,31
true,14,2,0,2,true,d,false,true,0.0-2.0-0.54-0.492-3.492,1,0,1,68,false,stim,false,2,549.0700000082143,0,0,2,81513,WMM2,1297867,false,false,1684,image-keyboard-response,32
true,14,2,0,2,true,d,false,true,0.0-2.0-0.54-0.493-3.493,1,0,1,68,false,stim,false,2,513.295000011567,0,0,2,81513,WMM2,1299906,false,false,1687,image-keyboard-response,33
true,14,1,0,0,false,q,true,false,0.0-2.0-0.54-0.494-3.494,1,0,1,90,false,stim,false,0,490.6900000059977,0,1,0,81513,WMM2,1301921,false,false,1690,image-keyboard-response,34
true,14,2,0,2,true,d,false,true,0.0-2.0-0.55-0.495-3.495,1,0,1,68,false,stim,false,2,731.2549999915063,0,0,2,81513,WMM2,1304177,false,false,1693,image-keyboard-response,35
true,14,2,0,0,false,q,true,false,0.0-2.0-0.55-0.496-3.496,1,0,1,68,false,stim,false,0,721.19000001112,0,1,1,81513,WMM2,1306429,false,false,1696,image-keyboard-response,36
true,14,2,0,2,true,d,false,true,0.0-2.0-0.55-0.497-3.497,1,0,1,68,false,stim,false,2,633.9550000266172,0,0,2,81513,WMM2,1308597,false,false,1699,image-keyboard-response,37
true,14,0,0,0,true,q,false,false,0.0-2.0-0.55-0.498-3.498,1,0,1,81,false,stim,false,0,993.9200000371784,0,1,0,81513,WMM2,1311123,false,true,1702,image-keyboard-response,38
true,14,0,0,0,true,q,false,true,0.0-2.0-0.55-0.499-3.499,1,0,1,81,false,stim,false,0,381.1699999496341,0,1,0,81513,WMM2,1313023,false,false,1705,image-keyboard-response,39
true,15,2,3,1,false,z,false,false,0.0-2.0-0.55-0.500-3.500,1,1,0,68,true,stim,true,2,583.7150000152178,0,0,2,81513,WMM2,1315131,false,false,1708,image-keyboard-response,1
true,15,0,3,0,true,q,false,true,0.0-2.0-0.55-0.501-3.501,1,1,0,81,false,stim,false,0,596.2999999755993,0,1,0,81513,WMM2,1317253,false,false,1711,image-keyboard-response,2
true,15,0,3,0,true,q,false,true,0.0-2.0-0.55-0.502-3.502,1,1,0,81,false,stim,false,0,652.3900000029244,0,1,1,81513,WMM2,1319434,false,false,1714,image-keyboard-response,3
true,15,0,3,0,true,q,false,true,0.0-2.0-0.55-0.503-3.503,1,1,0,81,false,stim,false,0,466.7849999968894,0,1,1,81513,WMM2,1321422,false,false,1717,image-keyboard-response,4
true,15,0,3,0,true,q,false,true,0.0-2.0-0.56-0.504-3.504,1,1,0,81,false,stim,false,0,527.7600000263192,0,1,1,81513,WMM2,1323484,false,false,1720,image-keyboard-response,5
true,15,0,3,0,true,q,false,false,0.0-2.0-0.56-0.505-3.505,1,1,0,81,false,stim,false,0,517.7700000349432,0,1,1,81513,WMM2,1325534,false,true,1723,image-keyboard-response,6
true,15,0,3,0,true,q,false,true,0.0-2.0-0.56-0.506-3.506,1,1,0,81,false,stim,false,0,619.0000000060536,0,1,0,81513,WMM2,1327682,false,false,1726,image-keyboard-response,7
true,15,2,3,1,false,z,false,false,0.0-2.0-0.56-0.507-3.507,1,1,0,68,false,stim,true,2,483.3949999883771,0,0,2,81513,WMM2,1329682,false,false,1729,image-keyboard-response,8
true,15,2,3,1,false,z,false,false,0.0-2.0-0.56-0.508-3.508,1,1,0,68,false,stim,true,2,494.2750000045635,0,0,2,81513,WMM2,1331695,false,false,1732,image-keyboard-response,9
true,15,0,3,0,true,q,false,true,0.0-2.0-0.56-0.509-3.509,1,1,0,81,false,stim,false,0,607.2500000009313,0,1,1,81513,WMM2,1333835,false,false,1735,image-keyboard-response,10
true,15,1,3,1,true,z,false,true,0.0-2.0-0.56-0.510-3.510,1,1,0,90,false,stim,false,2,763.1699999910779,0,0,2,81513,WMM2,1336131,false,false,1738,image-keyboard-response,11
true,15,0,3,0,true,q,false,true,0.0-2.0-0.56-0.511-3.511,1,1,0,81,false,stim,false,0,557.6100000180304,0,1,0,81513,WMM2,1338219,false,false,1741,image-keyboard-response,12
true,15,0,3,0,true,q,false,true,0.0-2.0-0.56-0.512-3.512,1,1,0,81,false,stim,false,0,440.22000004770234,0,1,0,81513,WMM2,1340186,false,false,1744,image-keyboard-response,13
true,15,1,3,1,true,z,false,true,0.0-2.0-0.57-0.513-3.513,1,1,0,90,false,stim,false,2,727.1449999534525,0,0,2,81513,WMM2,1342440,false,false,1747,image-keyboard-response,14
true,15,0,3,0,true,q,false,true,0.0-2.0-0.57-0.514-3.514,1,1,0,81,false,stim,false,0,816.5750000043772,0,1,1,81513,WMM2,1344775,false,false,1750,image-keyboard-response,15
true,15,0,3,0,true,q,false,true,0.0-2.0-0.57-0.515-3.515,1,1,0,81,false,stim,false,0,510.17000002320856,0,1,1,81513,WMM2,1346806,false,false,1753,image-keyboard-response,16
true,15,0,3,0,true,q,false,true,0.0-2.0-0.57-0.516-3.516,1,1,0,81,false,stim,false,0,589.1350000165403,0,1,0,81513,WMM2,1348916,false,false,1756,image-keyboard-response,17
true,15,0,3,0,true,q,false,false,0.0-2.0-0.57-0.517-3.517,1,1,0,81,false,stim,false,0,405.2599999704398,0,1,0,81513,WMM2,1350843,false,true,1759,image-keyboard-response,18
true,15,1,3,1,true,z,false,false,0.0-2.0-0.57-0.518-3.518,1,1,0,90,false,stim,false,2,588.5800000396557,0,0,2,81513,WMM2,1352951,false,true,1762,image-keyboard-response,19
true,15,0,3,0,true,q,false,false,0.0-2.0-0.57-0.519-3.519,1,1,0,81,false,stim,false,0,536.034999997355,0,1,0,81513,WMM2,1355002,false,true,1765,image-keyboard-response,20
true,15,1,3,1,true,z,false,true,0.0-2.0-0.57-0.520-3.520,1,1,0,90,false,stim,false,2,435.4400000302121,0,1,2,81513,WMM2,1356968,false,false,1768,image-keyboard-response,21
true,15,0,3,0,true,q,false,true,0.0-2.0-0.57-0.521-3.521,1,1,0,81,false,stim,false,0,672.3699999856763,0,0,1,81513,WMM2,1359170,false,false,1771,image-keyboard-response,22
true,15,0,3,0,true,q,false,true,0.0-2.0-0.58-0.522-3.522,1,1,0,81,false,stim,false,0,424.6399999829009,0,0,1,81513,WMM2,1361127,false,false,1774,image-keyboard-response,23
true,15,0,3,0,true,q,false,true,0.0-2.0-0.58-0.523-3.523,1,1,0,81,false,stim,false,0,607.7150000492111,0,1,0,81513,WMM2,1363259,false,false,1777,image-keyboard-response,24
true,15,1,3,1,true,z,false,true,0.0-2.0-0.58-0.524-3.524,1,1,0,90,false,stim,false,2,511.2099999678321,0,1,2,81513,WMM2,1365291,false,false,1780,image-keyboard-response,25
true,15,0,3,0,true,q,false,true,0.0-2.0-0.58-0.525-3.525,1,1,0,81,false,stim,false,0,518.6499999836087,0,0,1,81513,WMM2,1367329,false,false,1783,image-keyboard-response,26
true,15,1,3,1,true,z,false,false,0.0-2.0-0.58-0.526-3.526,1,1,0,90,false,stim,false,2,676.3150000479072,0,1,2,81513,WMM2,1369538,false,true,1786,image-keyboard-response,27
true,15,0,3,0,true,q,false,true,0.0-2.0-0.58-0.527-3.527,1,1,0,81,false,stim,false,0,632.1449999813922,0,0,1,81513,WMM2,1371695,false,false,1789,image-keyboard-response,28
true,15,0,3,0,true,q,false,true,0.0-2.0-0.58-0.528-3.528,1,1,0,81,false,stim,false,0,647.289999993518,0,1,0,81513,WMM2,1373856,false,false,1792,image-keyboard-response,29
true,15,1,3,1,true,z,false,true,0.0-2.0-0.58-0.529-3.529,1,1,0,90,false,stim,false,2,830.8349999715574,0,1,2,81513,WMM2,1376214,false,false,1795,image-keyboard-response,30
true,16,0,2,0,true,q,false,true,0.0-2.0-0.58-0.530-3.530,1,0,1,81,true,stim,false,0,350.33499996643513,0,1,0,81513,WMM2,1378092,false,false,1798,image-keyboard-response,1
true,16,0,2,1,false,z,false,false,0.0-2.0-0.59-0.531-3.531,1,0,1,81,false,stim,true,0,361.62000003969297,0,0,1,81513,WMM2,1379999,false,false,1801,image-keyboard-response,2
true,16,1,2,1,true,z,false,true,0.0-2.0-0.59-0.532-3.532,1,0,1,90,false,stim,false,1,512.3350000358187,0,1,2,81513,WMM2,1382043,false,false,1804,image-keyboard-response,3
true,16,0,2,0,true,q,false,true,0.0-2.0-0.59-0.533-3.533,1,0,1,81,false,stim,false,0,479.1700000059791,0,1,0,81513,WMM2,1384043,false,false,1807,image-keyboard-response,4
true,16,0,2,0,true,q,false,true,0.0-2.0-0.59-0.534-3.534,1,0,1,81,false,stim,false,0,377.7199999894947,0,1,0,81513,WMM2,1385945,false,false,1810,image-keyboard-response,5
true,16,0,2,1,false,z,false,false,0.0-2.0-0.59-0.535-3.535,1,0,1,81,false,stim,true,0,591.8899999815039,0,0,1,81513,WMM2,1388067,false,false,1813,image-keyboard-response,6
true,16,1,2,1,true,z,false,false,0.0-2.0-0.59-0.536-3.536,1,0,1,90,false,stim,false,0,493.37999999988824,0,0,1,81513,WMM2,1390090,false,true,1816,image-keyboard-response,7
true,16,0,2,0,true,q,false,true,0.0-2.0-0.59-0.537-3.537,1,0,1,81,false,stim,false,0,630.1949999760836,0,1,0,81513,WMM2,1392243,false,false,1819,image-keyboard-response,8
true,16,1,2,1,true,z,false,true,0.0-2.0-0.59-0.538-3.538,1,0,1,90,false,stim,false,1,725.5249999579974,0,1,2,81513,WMM2,1394499,false,false,1822,image-keyboard-response,9
true,16,1,2,1,true,z,false,true,0.0-2.0-0.59-0.539-3.539,1,0,1,90,false,stim,false,1,443.02999996580184,0,1,2,81513,WMM2,1396467,false,false,1825,image-keyboard-response,10
true,16,1,2,1,true,z,false,true,0.0-2.0-0.60-0.540-3.540,1,0,1,90,false,stim,false,1,404.694999975618,0,1,2,81513,WMM2,1398396,false,false,1828,image-keyboard-response,11
true,16,1,2,1,true,z,false,true,0.0-2.0-0.60-0.541-3.541,1,0,1,90,false,stim,false,1,436.32000003708526,0,1,2,81513,WMM2,1400347,false,false,1831,image-keyboard-response,12
true,16,0,2,1,false,z,false,true,0.0-2.0-0.60-0.542-3.542,1,0,1,81,false,stim,true,0,578.8449999527074,0,0,1,81513,WMM2,1402446,false,true,1834,image-keyboard-response,13
true,16,0,2,1,false,z,false,false,0.0-2.0-0.60-0.543-3.543,1,0,1,81,false,stim,true,0,411.7449999903329,0,0,1,81513,WMM2,1404380,false,false,1837,image-keyboard-response,14
true,16,0,2,0,true,q,false,true,0.0-2.0-0.60-0.544-3.544,1,0,1,81,false,stim,false,0,564.2200000002049,0,1,0,81513,WMM2,1406474,false,false,1840,image-keyboard-response,15
true,16,0,2,0,true,q,false,true,0.0-2.0-0.60-0.545-3.545,1,0,1,81,false,stim,false,0,429.0449999971315,0,1,0,81513,WMM2,1408425,false,false,1843,image-keyboard-response,16
true,16,0,2,1,false,z,false,false,0.0-2.0-0.60-0.546-3.546,1,0,1,81,false,stim,true,0,506.6099999821745,0,0,1,81513,WMM2,1410447,false,false,1846,image-keyboard-response,17
true,16,1,2,1,true,z,false,true,0.0-2.0-0.60-0.547-3.547,1,0,1,90,false,stim,false,1,484.67000003438443,0,1,2,81513,WMM2,1412458,false,false,1849,image-keyboard-response,18
true,16,0,2,0,true,q,false,true,0.0-2.0-0.60-0.548-3.548,1,0,1,81,false,stim,false,0,574.3249999941327,0,1,0,81513,WMM2,1414553,false,false,1852,image-keyboard-response,19
true,16,1,2,1,true,z,false,true,0.0-2.0-0.61-0.549-3.549,1,0,1,90,false,stim,false,0,450.08499996038154,0,0,1,81513,WMM2,1416536,false,false,1855,image-keyboard-response,20
true,16,0,2,0,true,q,false,true,0.0-2.0-0.61-0.550-3.550,1,0,1,81,false,stim,false,0,496.66000000433996,0,1,0,81513,WMM2,1418558,false,false,1858,image-keyboard-response,21
true,16,1,2,1,true,z,false,true,0.0-2.0-0.61-0.551-3.551,1,0,1,90,false,stim,false,0,368.3150000288151,0,0,1,81513,WMM2,1420449,false,false,1861,image-keyboard-response,22
true,16,0,2,0,true,q,false,true,0.0-2.0-0.61-0.552-3.552,1,0,1,81,false,stim,false,0,617.4349999637343,0,0,0,81513,WMM2,1422596,false,false,1864,image-keyboard-response,23
true,16,1,2,1,true,z,false,true,0.0-2.0-0.61-0.553-3.553,1,0,1,90,false,stim,false,1,653.5849999636412,0,1,2,81513,WMM2,1424768,false,false,1867,image-keyboard-response,24
true,16,1,2,1,true,z,false,true,0.0-2.0-0.61-0.554-3.554,1,0,1,90,false,stim,false,0,516.8550000526011,0,1,1,81513,WMM2,1426817,false,false,1870,image-keyboard-response,25
true,16,0,2,0,true,q,false,true,0.0-2.0-0.61-0.555-3.555,1,0,1,81,false,stim,false,0,571.3299999479204,0,0,0,81513,WMM2,1428921,false,false,1873,image-keyboard-response,26
true,16,1,2,1,true,z,false,true,0.0-2.0-0.61-0.556-3.556,1,0,1,90,false,stim,false,1,390.0900000007823,0,1,2,81513,WMM2,1430838,false,false,1876,image-keyboard-response,27
true,16,1,2,1,true,z,false,true,0.0-2.0-0.61-0.557-3.557,1,0,1,90,false,stim,false,1,765.320000005886,0,1,2,81513,WMM2,1433137,false,false,1879,image-keyboard-response,28
true,16,1,2,1,true,z,false,false,0.0-2.0-0.62-0.558-3.558,1,0,1,90,false,stim,false,1,518.3349999715574,0,1,2,81513,WMM2,1435187,false,true,1882,image-keyboard-response,29
true,16,0,2,0,true,q,false,true,0.0-2.0-0.62-0.559-3.559,1,0,1,81,false,stim,false,0,543.53500000434,0,0,0,81513,WMM2,1437255,false,false,1885,image-keyboard-response,30
true,16,0,2,0,true,q,false,true,0.0-2.0-0.62-0.560-3.560,1,0,1,81,false,stim,false,0,498.3599999686703,0,0,0,81513,WMM2,1439277,false,false,1888,image-keyboard-response,31
true,16,0,2,0,true,q,false,true,0.0-2.0-0.62-0.561-3.561,1,0,1,81,false,stim,false,0,394.46999999927357,0,0,0,81513,WMM2,1441208,false,false,1891,image-keyboard-response,32
true,17,1,4,1,true,z,false,true,0.0-2.0-0.62-0.562-3.562,0,1,1,90,true,stim,false,1,761.8200000142679,0,1,1,81513,WMM2,1443500,false,false,1894,image-keyboard-response,1
true,17,1,4,1,true,z,false,true,0.0-2.0-0.62-0.563-3.563,0,1,1,90,false,stim,false,1,488.965000025928,0,1,1,81513,WMM2,1445519,false,false,1897,image-keyboard-response,2
true,17,1,4,1,true,z,false,true,0.0-2.0-0.62-0.564-3.564,0,1,1,90,false,stim,false,1,431.8750000093132,0,1,1,81513,WMM2,1447476,false,false,1900,image-keyboard-response,3
true,17,1,4,1,true,z,false,true,0.0-2.0-0.62-0.565-3.565,0,1,1,90,false,stim,false,1,551.4400000101887,0,1,2,81513,WMM2,1449581,false,false,1903,image-keyboard-response,4
true,17,1,4,1,true,z,false,true,0.0-2.0-0.62-0.566-3.566,0,1,1,90,false,stim,false,1,499.32499998249114,0,1,2,81513,WMM2,1451599,false,false,1906,image-keyboard-response,5
true,17,1,4,1,true,z,false,true,0.0-2.0-0.63-0.567-3.567,0,1,1,90,false,stim,false,1,408.79000001586974,0,1,2,81513,WMM2,1453525,false,false,1909,image-keyboard-response,6
true,17,0,4,0,true,q,false,false,0.0-2.0-0.63-0.568-3.568,0,1,1,81,false,stim,false,0,548.5849999822676,0,0,0,81513,WMM2,1455603,false,true,1912,image-keyboard-response,7
true,17,1,4,1,true,z,false,true,0.0-2.0-0.63-0.569-3.569,0,1,1,90,false,stim,false,1,417.589999968186,0,1,1,81513,WMM2,1457550,false,false,1915,image-keyboard-response,8
true,17,0,4,0,true,q,false,false,0.0-2.0-0.63-0.570-3.570,0,1,1,81,false,stim,false,0,660.1799999480136,0,0,0,81513,WMM2,1459735,false,true,1918,image-keyboard-response,9
true,17,1,4,1,true,z,false,true,0.0-2.0-0.63-0.571-3.571,0,1,1,90,false,stim,false,1,620.8650000044145,0,1,2,81513,WMM2,1461878,false,false,1921,image-keyboard-response,10
true,17,1,4,0,false,q,true,false,0.0-2.0-0.63-0.572-3.572,0,1,1,90,false,stim,false,0,559.4200000050478,0,0,0,81513,WMM2,1463958,false,false,1924,image-keyboard-response,11
true,17,1,4,1,true,z,false,false,0.0-2.0-0.63-0.573-3.573,0,1,1,90,false,stim,false,1,438.63000004785135,0,1,2,81513,WMM2,1465916,false,true,1927,image-keyboard-response,12
true,17,1,4,1,true,z,false,true,0.0-2.0-0.63-0.574-3.574,0,1,1,90,false,stim,false,1,388.1099999998696,0,1,1,81513,WMM2,1467837,false,false,1930,image-keyboard-response,13
true,17,1,4,1,true,z,false,true,0.0-2.0-0.63-0.575-3.575,0,1,1,90,false,stim,false,1,405.5899999802932,0,1,1,81513,WMM2,1469773,false,false,1933,image-keyboard-response,14
true,17,2,4,0,false,q,true,false,0.0-2.0-0.64-0.576-3.576,0,1,1,68,false,stim,false,0,501.8549999804236,0,0,0,81513,WMM2,1471806,false,false,1936,image-keyboard-response,15
true,17,1,4,1,true,z,false,true,0.0-2.0-0.64-0.577-3.577,0,1,1,90,false,stim,false,1,502.295000012964,0,1,2,81513,WMM2,1473834,false,false,1939,image-keyboard-response,16
true,17,0,4,0,true,q,false,true,0.0-2.0-0.64-0.578-3.578,0,1,1,81,false,stim,false,0,665.500000002794,0,0,0,81513,WMM2,1476027,false,false,1942,image-keyboard-response,17
true,17,1,4,1,true,z,false,true,0.0-2.0-0.64-0.579-3.579,0,1,1,90,false,stim,false,1,483.074999996461,0,1,1,81513,WMM2,1478032,false,false,1945,image-keyboard-response,18
true,17,0,4,0,true,q,false,false,0.0-2.0-0.64-0.580-3.580,0,1,1,81,false,stim,false,0,499.9950000201352,0,0,0,81513,WMM2,1480064,false,true,1948,image-keyboard-response,19
true,17,1,4,1,true,z,false,false,0.0-2.0-0.64-0.581-3.581,0,1,1,90,false,stim,false,1,462.6249999855645,0,1,1,81513,WMM2,1482059,false,true,1951,image-keyboard-response,20
true,17,1,4,1,true,z,false,true,0.0-2.0-0.64-0.582-3.582,0,1,1,90,false,stim,false,1,416.96000000229105,0,0,2,81513,WMM2,1484004,false,false,1954,image-keyboard-response,21
true,17,1,4,1,true,z,false,true,0.0-2.0-0.64-0.583-3.583,0,1,1,90,false,stim,false,1,562.5299999956042,0,1,1,81513,WMM2,1486087,false,false,1957,image-keyboard-response,22
true,17,1,4,1,true,z,false,true,0.0-2.0-0.64-0.584-3.584,0,1,1,90,false,stim,false,1,872.6849999511614,0,0,2,81513,WMM2,1488497,false,false,1960,image-keyboard-response,23
true,17,1,4,1,true,z,false,true,0.0-2.0-0.65-0.585-3.585,0,1,1,90,false,stim,false,1,451.00499998079613,0,0,2,81513,WMM2,1490462,false,false,1963,image-keyboard-response,24
true,17,1,4,1,true,z,false,true,0.0-2.0-0.65-0.586-3.586,0,1,1,90,false,stim,false,1,538.1449999986216,0,1,1,81513,WMM2,1492524,false,false,1966,image-keyboard-response,25
