answered,blockNum,choice,condition,corResp,correct,correct_response,explo,fb,internal_node_id,isStable_1,isStable_2,isStable_3,key_press,newBlock,part,persev,persevResp,rt,sessNum,stableAS,stimulus,subject,task,time_elapsed,training,trap,trial_index,trial_type,trialsInBlock
true,1,1,0,2,false,d,true,false,0.0-2.0-0.0-0.0-3.0,0,0,0,90,true,stim,false,-1,731,2,0,1,83476,WMM2,115364,false,false,184,image-keyboard-response,1
true,1,0,0,1,false,z,true,false,0.0-2.0-0.0-0.1-3.1,0,0,0,81,false,stim,false,-1,502,2,0,2,83476,WMM2,117396,false,false,187,image-keyboard-response,2
true,1,2,0,2,true,d,false,true,0.0-2.0-0.0-0.2-3.2,0,0,0,68,false,stim,false,-1,880,2,0,1,83476,WMM2,119814,false,false,190,image-keyboard-response,3
true,1,1,0,1,true,z,false,true,0.0-2.0-0.0-0.3-3.3,0,0,0,90,false,stim,false,-1,911,2,0,2,83476,WMM2,122265,false,false,193,image-keyboard-response,4
true,1,0,0,2,false,d,true,false,0.0-2.0-0.0-0.4-3.4,0,0,0,81,false,stim,false,-1,455,2,0,0,83476,WMM2,124248,false,false,196,image-keyboard-response,5
true,1,2,0,2,true,d,false,true,0.0-2.0-0.0-0.5-3.5,0,0,0,68,false,stim,false,-1,392,2,0,1,83476,WMM2,126167,false,false,199,image-keyboard-response,6
true,1,1,0,2,false,d,true,false,0.0-2.0-0.0-0.6-3.6,0,0,0,90,false,stim,false,-1,494,2,0,0,83476,WMM2,128183,false,false,202,image-keyboard-response,7
true,1,2,0,2,true,d,false,true,0.0-2.0-0.0-0.7-3.7,0,0,0,68,false,stim,false,-1,524,2,0,0,83476,WMM2,130237,false,false,205,image-keyboard-response,8
true,1,1,0,1,true,z,false,true,0.0-2.0-0.0-0.8-3.8,0,0,0,90,false,stim,false,-1,501,2,0,2,83476,WMM2,132274,false,false,208,image-keyboard-response,9
true,1,1,0,1,true,z,false,true,0.0-2.0-0.1-0.9-3.9,0,0,0,90,false,stim,false,-1,409,2,0,2,83476,WMM2,134223,false,false,211,image-keyboard-response,10
true,1,1,0,1,true,z,false,true,0.0-2.0-0.1-0.10-3.10,0,0,0,90,false,stim,false,-1,428,2,0,2,83476,WMM2,136181,false,false,214,image-keyboard-response,11
true,1,2,0,2,true,d,false,true,0.0-2.0-0.1-0.11-3.11,0,0,0,68,false,stim,false,-1,425,2,0,0,83476,WMM2,138140,false,false,217,image-keyboard-response,12
true,1,1,0,1,true,z,false,true,0.0-2.0-0.1-0.12-3.12,0,0,0,90,false,stim,false,-1,469,2,0,2,83476,WMM2,140142,false,false,220,image-keyboard-response,13
true,1,2,0,2,true,d,false,true,0.0-2.0-0.1-0.13-3.13,0,0,0,68,false,stim,false,-1,745,2,0,0,83476,WMM2,142429,false,false,223,image-keyboard-response,14
true,1,2,0,2,true,d,false,true,0.0-2.0-0.1-0.14-3.14,0,0,0,68,false,stim,false,-1,402,2,0,0,83476,WMM2,144367,false,false,226,image-keyboard-response,15
true,1,2,0,2,true,d,false,true,0.0-2.0-0.1-0.15-3.15,0,0,0,68,false,stim,false,-1,667,2,0,1,83476,WMM2,146550,false,false,229,image-keyboard-response,16
true,1,2,0,2,true,d,false,true,0.0-2.0-0.1-0.16-3.16,0,0,0,68,false,stim,false,-1,430,2,0,1,83476,WMM2,148512,false,false,232,image-keyboard-response,17
true,1,2,0,2,true,d,false,true,0.0-2.0-0.1-0.17-3.17,0,0,0,68,false,stim,false,-1,536,2,0,1,83476,WMM2,150580,false,false,235,image-keyboard-response,18
true,1,1,0,1,true,z,false,true,0.0-2.0-0.2-0.18-3.18,0,0,0,90,false,stim,false,-1,699,2,0,2,83476,WMM2,152803,false,false,238,image-keyboard-response,19
true,1,2,0,2,true,d,false,true,0.0-2.0-0.2-0.19-3.19,0,0,0,68,false,stim,false,-1,406,2,0,1,83476,WMM2,154750,false,false,241,image-keyboard-response,20
true,1,2,0,2,true,d,false,true,0.0-2.0-0.2-0.20-3.20,0,0,0,68,false,stim,false,-1,566,2,1,0,83476,WMM2,156849,false,false,244,image-keyboard-response,21
true,1,2,0,2,true,d,false,true,0.0-2.0-0.2-0.21-3.21,0,0,0,68,false,stim,false,-1,572,2,0,1,83476,WMM2,158956,false,false,247,image-keyboard-response,22
true,1,1,0,1,true,z,false,true,0.0-2.0-0.2-0.22-3.22,0,0,0,90,false,stim,false,-1,585,2,0,2,83476,WMM2,161068,false,false,250,image-keyboard-response,23
true,1,1,0,1,true,z,false,true,0.0-2.0-0.2-0.23-3.23,0,0,0,90,false,stim,false,-1,578,2,0,2,83476,WMM2,163181,false,false,253,image-keyboard-response,24
true,1,2,0,2,true,d,false,false,0.0-2.0-0.2-0.24-3.24,0,0,0,68,false,stim,false,-1,440,2,1,0,83476,WMM2,165145,false,true,256,image-keyboard-response,25
true,1,2,0,2,true,d,false,true,0.0-2.0-0.2-0.25-3.25,0,0,0,68,false,stim,false,-1,377,2,0,1,83476,WMM2,167061,false,false,259,image-keyboard-response,26
true,1,2,0,2,true,d,false,false,0.0-2.0-0.2-0.26-3.26,0,0,0,68,false,stim,false,-1,392,2,1,0,83476,WMM2,168975,false,true,262,image-keyboard-response,27
true,1,0,0,2,false,d,true,false,0.0-2.0-0.3-0.27-3.27,0,0,0,81,false,stim,false,-1,758,2,1,0,83476,WMM2,171263,false,false,265,image-keyboard-response,28
true,1,2,0,2,true,d,false,true,0.0-2.0-0.3-0.28-3.28,0,0,0,68,false,stim,false,-1,941,2,0,1,83476,WMM2,173745,false,false,268,image-keyboard-response,29
true,1,1,0,2,false,d,true,false,0.0-2.0-0.3-0.29-3.29,0,0,0,90,false,stim,false,-1,367,2,1,0,83476,WMM2,175650,false,false,271,image-keyboard-response,30
true,2,1,1,0,false,q,false,false,0.0-2.0-0.3-0.30-3.30,1,0,0,90,true,stim,true,1,1003,2,0,2,83476,WMM2,178187,false,false,274,image-keyboard-response,1
true,2,2,1,2,true,d,false,true,0.0-2.0-0.3-0.31-3.31,1,0,0,68,false,stim,false,2,889,2,1,0,83476,WMM2,180613,false,false,277,image-keyboard-response,2
true,2,1,1,0,false,q,false,false,0.0-2.0-0.3-0.32-3.32,1,0,0,90,false,stim,true,1,409,2,0,2,83476,WMM2,182552,false,false,280,image-keyboard-response,3
true,2,2,1,1,false,z,false,false,0.0-2.0-0.3-0.33-3.33,1,0,0,68,false,stim,true,2,430,2,0,1,83476,WMM2,184525,false,false,283,image-keyboard-response,4
true,2,0,1,1,false,z,true,false,0.0-2.0-0.3-0.34-3.34,1,0,0,81,false,stim,false,2,704,2,0,1,83476,WMM2,186757,false,false,286,image-keyboard-response,5
true,2,1,1,0,false,q,false,false,0.0-2.0-0.3-0.35-3.35,1,0,0,90,false,stim,true,1,1039,2,0,2,83476,WMM2,189323,false,false,289,image-keyboard-response,6
true,2,2,1,2,true,d,false,true,0.0-2.0-0.4-0.36-3.36,1,0,0,68,false,stim,false,2,884,2,1,0,83476,WMM2,191749,false,false,292,image-keyboard-response,7
true,2,2,1,2,true,d,false,false,0.0-2.0-0.4-0.37-3.37,1,0,0,68,false,stim,false,2,578,2,1,0,83476,WMM2,193863,false,true,295,image-keyboard-response,8
true,2,0,1,0,true,q,false,true,0.0-2.0-0.4-0.38-3.38,1,0,0,81,false,stim,false,1,1861,2,0,2,83476,WMM2,197265,false,false,298,image-keyboard-response,9
true,2,0,1,0,true,q,false,true,0.0-2.0-0.4-0.39-3.39,1,0,0,81,false,stim,false,1,1059,2,0,2,83476,WMM2,199854,false,false,301,image-keyboard-response,10
true,2,2,1,2,true,d,false,true,0.0-2.0-0.4-0.40-3.40,1,0,0,68,false,stim,false,2,1007,2,1,0,83476,WMM2,202392,false,false,304,image-keyboard-response,11
true,2,0,1,0,true,q,false,true,0.0-2.0-0.4-0.41-3.41,1,0,0,81,false,stim,false,1,2437,2,0,2,83476,WMM2,206363,false,false,307,image-keyboard-response,12
true,2,2,1,1,false,z,false,false,0.0-2.0-0.4-0.42-3.42,1,0,0,68,false,stim,true,2,2384,2,0,1,83476,WMM2,210288,false,false,310,image-keyboard-response,13
true,2,0,1,1,false,z,true,false,0.0-2.0-0.4-0.43-3.43,1,0,0,81,false,stim,false,2,602,2,0,1,83476,WMM2,212426,false,false,313,image-keyboard-response,14
true,2,1,1,1,true,z,false,true,0.0-2.0-0.4-0.44-3.44,1,0,0,90,false,stim,false,2,411,2,0,1,83476,WMM2,214374,false,false,316,image-keyboard-response,15
true,2,2,1,2,true,d,false,true,0.0-2.0-0.5-0.45-3.45,1,0,0,68,false,stim,false,2,1111,2,1,0,83476,WMM2,217015,false,false,319,image-keyboard-response,16
true,2,1,1,1,true,z,false,true,0.0-2.0-0.5-0.46-3.46,1,0,0,90,false,stim,false,2,628,2,0,1,83476,WMM2,219172,false,false,322,image-keyboard-response,17
true,2,1,1,1,true,z,false,false,0.0-2.0-0.5-0.47-3.47,1,0,0,90,false,stim,false,2,1020,2,0,1,83476,WMM2,221724,false,true,325,image-keyboard-response,18
true,2,2,1,2,true,d,false,true,0.0-2.0-0.5-0.48-3.48,1,0,0,68,false,stim,false,2,527,2,1,0,83476,WMM2,223791,false,false,328,image-keyboard-response,19
true,2,0,1,0,true,q,false,true,0.0-2.0-0.5-0.49-3.49,1,0,0,81,false,stim,false,1,489,2,0,2,83476,WMM2,225813,false,false,331,image-keyboard-response,20
true,2,0,1,0,true,q,false,true,0.0-2.0-0.5-0.50-3.50,1,0,0,81,false,stim,false,1,477,2,1,2,83476,WMM2,227821,false,false,334,image-keyboard-response,21
true,2,1,1,1,true,z,false,true,0.0-2.0-0.5-0.51-3.51,1,0,0,90,false,stim,false,2,817,2,0,1,83476,WMM2,230163,false,false,337,image-keyboard-response,22
true,2,0,1,0,true,q,false,true,0.0-2.0-0.5-0.52-3.52,1,0,0,81,false,stim,false,1,1422,2,1,2,83476,WMM2,233126,false,false,340,image-keyboard-response,23
true,2,2,1,2,true,d,false,false,0.0-2.0-0.5-0.53-3.53,1,0,0,68,false,stim,false,2,1175,2,1,0,83476,WMM2,235827,false,true,343,image-keyboard-response,24
true,2,0,1,0,true,q,false,false,0.0-2.0-0.6-0.54-3.54,1,0,0,81,false,stim,false,1,1741,2,1,2,83476,WMM2,239095,false,true,346,image-keyboard-response,25
true,2,1,1,2,false,d,true,false,0.0-2.0-0.6-0.55-3.55,1,0,0,90,false,stim,false,2,2379,2,1,0,83476,WMM2,243012,false,false,349,image-keyboard-response,26
true,2,1,1,1,true,z,false,true,0.0-2.0-0.6-0.56-3.56,1,0,0,90,false,stim,false,2,2324,2,0,1,83476,WMM2,246868,false,false,352,image-keyboard-response,27
true,2,0,1,0,true,q,false,true,0.0-2.0-0.6-0.57-3.57,1,0,0,81,false,stim,false,1,1483,2,1,2,83476,WMM2,249886,false,false,355,image-keyboard-response,28
true,2,1,1,2,false,d,true,true,0.0-2.0-0.6-0.58-3.58,1,0,0,90,false,stim,false,2,939,2,1,0,83476,WMM2,252353,false,true,358,image-keyboard-response,29
true,2,0,1,1,false,z,true,false,0.0-2.0-0.6-0.59-3.59,1,0,0,81,false,stim,false,2,1865,2,0,1,83476,WMM2,255761,false,false,361,image-keyboard-response,30
true,3,0,3,0,true,q,false,true,0.0-2.0-0.6-0.60-3.60,1,0,1,81,true,stim,false,0,2633,2,1,2,83476,WMM2,259926,false,false,364,image-keyboard-response,1
true,3,2,3,2,true,d,false,true,0.0-2.0-0.6-0.61-3.61,1,0,1,68,false,stim,false,2,2189,2,1,0,83476,WMM2,263643,false,false,367,image-keyboard-response,2
true,3,1,3,2,false,d,false,true,0.0-2.0-0.6-0.62-3.62,1,0,1,90,false,stim,true,1,1772,2,0,1,83476,WMM2,266946,false,true,370,image-keyboard-response,3
false,3,-1,3,0,false,q,true,false,0.0-2.0-0.7-0.63-3.63,1,0,1,,false,stim,false,0,,2,1,2,83476,WMM2,271494,false,false,373,image-keyboard-response,4
true,3,2,3,2,true,d,false,false,0.0-2.0-0.7-0.64-3.64,1,0,1,68,false,stim,false,2,664,2,1,0,83476,WMM2,273688,false,true,376,image-keyboard-response,5
true,3,1,3,2,false,d,false,false,0.0-2.0-0.7-0.65-3.65,1,0,1,90,false,stim,true,1,2949,2,0,1,83476,WMM2,278173,false,false,379,image-keyboard-response,6
true,3,2,3,2,true,d,false,true,0.0-2.0-0.7-0.66-3.66,1,0,1,68,false,stim,false,2,2747,2,1,0,83476,WMM2,282461,false,false,382,image-keyboard-response,7
true,3,0,3,0,true,q,false,true,0.0-2.0-0.7-0.67-3.67,1,0,1,81,false,stim,false,0,2567,2,1,2,83476,WMM2,286561,false,false,385,image-keyboard-response,8
true,3,0,3,0,true,q,false,true,0.0-2.0-0.7-0.68-3.68,1,0,1,81,false,stim,false,0,418,2,1,2,83476,WMM2,288501,false,false,388,image-keyboard-response,9
true,3,1,3,2,false,d,false,false,0.0-2.0-0.7-0.69-3.69,1,0,1,90,false,stim,true,1,928,2,0,1,83476,WMM2,290951,false,false,391,image-keyboard-response,10
true,3,2,3,2,true,d,false,true,0.0-2.0-0.7-0.70-3.70,1,0,1,68,false,stim,false,2,1446,2,1,0,83476,WMM2,293930,false,false,394,image-keyboard-response,11
true,3,0,3,2,false,d,true,false,0.0-2.0-0.7-0.71-3.71,1,0,1,81,false,stim,false,1,908,2,0,1,83476,WMM2,296373,false,false,397,image-keyboard-response,12
true,3,0,3,2,false,d,true,false,0.0-2.0-0.8-0.72-3.72,1,0,1,81,false,stim,false,2,1194,2,1,0,83476,WMM2,299098,false,false,400,image-keyboard-response,13
true,3,1,3,2,false,d,false,false,0.0-2.0-0.8-0.73-3.73,1,0,1,90,false,stim,true,1,591,2,0,1,83476,WMM2,301235,false,false,403,image-keyboard-response,14
true,3,2,3,2,true,d,false,true,0.0-2.0-0.8-0.74-3.74,1,0,1,68,false,stim,false,1,892,2,0,1,83476,WMM2,303656,false,false,406,image-keyboard-response,15
true,3,2,3,2,true,d,false,true,0.0-2.0-0.8-0.75-3.75,1,0,1,68,false,stim,false,1,390,2,0,1,83476,WMM2,305575,false,false,409,image-keyboard-response,16
true,3,1,3,2,false,d,true,false,0.0-2.0-0.8-0.76-3.76,1,0,1,90,false,stim,false,2,1235,2,1,0,83476,WMM2,308339,false,false,412,image-keyboard-response,17
true,3,0,3,2,false,d,true,true,0.0-2.0-0.8-0.77-3.77,1,0,1,81,false,stim,false,2,680,2,1,0,83476,WMM2,310542,false,true,415,image-keyboard-response,18
true,3,1,3,0,false,q,true,false,0.0-2.0-0.8-0.78-3.78,1,0,1,90,false,stim,false,0,781,2,1,2,83476,WMM2,312864,false,false,418,image-keyboard-response,19
true,3,0,3,0,true,q,false,false,0.0-2.0-0.8-0.79-3.79,1,0,1,81,false,stim,false,0,622,2,1,2,83476,WMM2,315026,false,true,421,image-keyboard-response,20
true,3,2,3,0,false,q,true,false,0.0-2.0-0.8-0.80-3.80,1,0,1,68,false,stim,false,0,459,2,1,2,83476,WMM2,317024,false,false,424,image-keyboard-response,21
true,3,1,3,0,false,q,true,false,0.0-2.0-0.9-0.81-3.81,1,0,1,90,false,stim,false,0,710,2,1,2,83476,WMM2,319275,false,false,427,image-keyboard-response,22
true,3,0,3,0,true,q,false,true,0.0-2.0-0.9-0.82-3.82,1,0,1,81,false,stim,false,0,782,2,1,2,83476,WMM2,321588,false,false,430,image-keyboard-response,23
true,3,1,3,2,false,d,false,false,0.0-2.0-0.9-0.83-3.83,1,0,1,90,false,stim,true,1,944,2,0,1,83476,WMM2,324068,false,false,433,image-keyboard-response,24
true,3,2,3,2,true,d,false,true,0.0-2.0-0.9-0.84-3.84,1,0,1,68,false,stim,false,2,807,2,1,0,83476,WMM2,326411,false,false,436,image-keyboard-response,25
true,3,2,3,2,true,d,false,false,0.0-2.0-0.9-0.85-3.85,1,0,1,68,false,stim,false,2,600,2,1,0,83476,WMM2,328543,false,true,439,image-keyboard-response,26
true,3,2,3,2,true,d,false,true,0.0-2.0-0.9-0.86-3.86,1,0,1,68,false,stim,false,2,401,2,1,0,83476,WMM2,330486,false,false,442,image-keyboard-response,27
true,3,0,3,0,true,q,false,true,0.0-2.0-0.9-0.87-3.87,1,0,1,81,false,stim,false,0,1775,2,1,2,83476,WMM2,333800,false,false,445,image-keyboard-response,28
true,3,1,3,2,false,d,false,false,0.0-2.0-0.9-0.88-3.88,1,0,1,90,false,stim,true,1,822,2,0,1,83476,WMM2,336147,false,false,448,image-keyboard-response,29
true,3,0,3,2,false,d,true,false,0.0-2.0-0.9-0.89-3.89,1,0,1,81,false,stim,false,1,828,2,0,1,83476,WMM2,338513,false,false,451,image-keyboard-response,30
true,3,2,3,2,true,d,false,true,0.0-2.0-0.10-0.90-3.90,1,0,1,68,false,stim,false,1,1798,2,0,1,83476,WMM2,341842,false,false,454,image-keyboard-response,31
true,3,2,3,2,true,d,false,true,0.0-2.0-0.10-0.91-3.91,1,0,1,68,false,stim,false,2,1058,2,1,0,83476,WMM2,344442,false,false,457,image-keyboard-response,32
true,3,2,3,2,true,d,false,true,0.0-2.0-0.10-0.92-3.92,1,0,1,68,false,stim,false,1,420,2,0,1,83476,WMM2,346405,false,false,460,image-keyboard-response,33
true,3,0,3,0,true,q,false,true,0.0-2.0-0.10-0.93-3.93,1,0,1,81,false,stim,false,0,2078,2,1,2,83476,WMM2,350022,false,false,463,image-keyboard-response,34
true,3,2,3,2,true,d,false,true,0.0-2.0-0.10-0.94-3.94,1,0,1,68,false,stim,false,1,2236,2,1,1,83476,WMM2,353800,false,false,466,image-keyboard-response,35
false,3,-1,3,0,false,q,true,true,0.0-2.0-0.10-0.95-3.95,1,0,1,,false,stim,false,0,,2,0,2,83476,WMM2,358343,false,true,469,image-keyboard-response,36
true,3,2,3,2,true,d,false,true,0.0-2.0-0.10-0.96-3.96,1,0,1,68,false,stim,false,2,667,2,1,0,83476,WMM2,360550,false,false,472,image-keyboard-response,37
true,3,2,3,2,true,d,false,true,0.0-2.0-0.10-0.97-3.97,1,0,1,68,false,stim,false,2,410,2,1,0,83476,WMM2,362494,false,false,475,image-keyboard-response,38
true,3,0,3,0,true,q,false,true,0.0-2.0-0.10-0.98-3.98,1,0,1,81,false,stim,false,0,1769,2,0,2,83476,WMM2,365802,false,false,478,image-keyboard-response,39
true,3,0,3,0,true,q,false,true,0.0-2.0-0.11-0.99-3.99,1,0,1,81,false,stim,false,0,725,2,0,2,83476,WMM2,368058,false,false,481,image-keyboard-response,40
true,3,2,3,2,true,d,false,true,0.0-2.0-0.11-0.100-3.100,1,0,1,68,false,stim,false,2,671,2,1,0,83476,WMM2,370255,false,false,484,image-keyboard-response,41
true,3,2,3,2,true,d,false,true,0.0-2.0-0.11-0.101-3.101,1,0,1,68,false,stim,false,2,357,2,1,0,83476,WMM2,372141,false,false,487,image-keyboard-response,42
true,3,0,3,0,true,q,false,true,0.0-2.0-0.11-0.102-3.102,1,0,1,81,false,stim,false,0,587,2,0,2,83476,WMM2,374252,false,false,490,image-keyboard-response,43
true,3,2,3,2,true,d,false,true,0.0-2.0-0.11-0.103-3.103,1,0,1,68,false,stim,false,1,1192,2,1,1,83476,WMM2,376986,false,false,493,image-keyboard-response,44
true,4,2,4,2,true,d,false,true,0.0-2.0-0.11-0.104-3.104,1,1,0,68,true,stim,false,2,940,2,1,0,83476,WMM2,379432,false,false,496,image-keyboard-response,1
true,4,2,4,2,true,d,false,true,0.0-2.0-0.11-0.105-3.105,1,1,0,68,false,stim,false,2,1232,2,1,1,83476,WMM2,382205,false,false,499,image-keyboard-response,2
true,4,0,4,0,true,q,false,true,0.0-2.0-0.11-0.106-3.106,1,1,0,81,false,stim,false,0,602,2,0,2,83476,WMM2,384336,false,false,502,image-keyboard-response,3
true,4,0,4,2,false,d,true,true,0.0-2.0-0.11-0.107-3.107,1,1,0,81,false,stim,false,2,1292,2,1,1,83476,WMM2,387151,false,true,505,image-keyboard-response,4
true,4,2,4,2,true,d,false,true,0.0-2.0-0.12-0.108-3.108,1,1,0,68,false,stim,false,2,599,2,1,0,83476,WMM2,389284,false,false,508,image-keyboard-response,5
true,4,0,4,2,false,d,true,true,0.0-2.0-0.12-0.109-3.109,1,1,0,81,false,stim,false,2,588,2,1,1,83476,WMM2,391411,false,true,511,image-keyboard-response,6
true,4,0,4,0,true,q,false,true,0.0-2.0-0.12-0.110-3.110,1,1,0,81,false,stim,false,0,1351,2,0,2,83476,WMM2,394295,false,false,514,image-keyboard-response,7
true,4,2,4,2,true,d,false,false,0.0-2.0-0.12-0.111-3.111,1,1,0,68,false,stim,false,2,773,2,1,0,83476,WMM2,396596,false,true,517,image-keyboard-response,8
true,4,2,4,2,true,d,false,false,0.0-2.0-0.12-0.112-3.112,1,1,0,68,false,stim,false,2,591,2,1,0,83476,WMM2,398715,false,true,520,image-keyboard-response,9
true,4,2,4,2,true,d,false,false,0.0-2.0-0.12-0.113-3.113,1,1,0,68,false,stim,false,2,1470,2,1,1,83476,WMM2,401725,false,true,523,image-keyboard-response,10
true,4,0,4,0,true,q,false,true,0.0-2.0-0.12-0.114-3.114,1,1,0,81,false,stim,false,0,1050,2,0,2,83476,WMM2,404305,false,false,526,image-keyboard-response,11
true,4,0,4,2,false,d,true,true,0.0-2.0-0.12-0.115-3.115,1,1,0,81,false,stim,false,2,1805,2,1,1,83476,WMM2,407649,false,true,529,image-keyboard-response,12
true,4,0,4,0,true,q,false,true,0.0-2.0-0.12-0.116-3.116,1,1,0,81,false,stim,false,0,936,2,0,2,83476,WMM2,410121,false,false,532,image-keyboard-response,13
true,4,0,4,0,true,q,false,true,0.0-2.0-0.13-0.117-3.117,1,1,0,81,false,stim,false,0,351,2,0,2,83476,WMM2,412005,false,false,535,image-keyboard-response,14
true,4,2,4,2,true,d,false,true,0.0-2.0-0.13-0.118-3.118,1,1,0,68,false,stim,false,2,676,2,1,0,83476,WMM2,414210,false,false,538,image-keyboard-response,15
true,4,0,4,0,true,q,false,true,0.0-2.0-0.13-0.119-3.119,1,1,0,81,false,stim,false,0,739,2,0,2,83476,WMM2,416473,false,false,541,image-keyboard-response,16
true,4,0,4,2,false,d,true,false,0.0-2.0-0.13-0.120-3.120,1,1,0,81,false,stim,false,2,2984,2,1,1,83476,WMM2,420995,false,false,544,image-keyboard-response,17
true,4,2,4,2,true,d,false,true,0.0-2.0-0.13-0.121-3.121,1,1,0,68,false,stim,false,2,714,2,1,1,83476,WMM2,423248,false,false,547,image-keyboard-response,18
true,4,0,4,2,false,d,true,false,0.0-2.0-0.13-0.122-3.122,1,1,0,81,false,stim,false,2,885,2,1,0,83476,WMM2,425660,false,false,550,image-keyboard-response,19
true,4,0,4,0,true,q,false,false,0.0-2.0-0.13-0.123-3.123,1,1,0,81,false,stim,false,0,1937,2,0,2,83476,WMM2,429132,false,true,553,image-keyboard-response,20
true,4,2,4,2,true,d,false,true,0.0-2.0-0.13-0.124-3.124,1,1,0,68,false,stim,false,2,442,2,1,0,83476,WMM2,431116,false,false,556,image-keyboard-response,21
true,4,2,4,2,true,d,false,true,0.0-2.0-0.13-0.125-3.125,1,1,0,68,false,stim,false,2,972,2,1,1,83476,WMM2,433626,false,false,559,image-keyboard-response,22
true,4,2,4,2,true,d,false,false,0.0-2.0-0.14-0.126-3.126,1,1,0,68,false,stim,false,2,540,2,1,1,83476,WMM2,435694,false,true,562,image-keyboard-response,23
true,4,2,4,2,true,d,false,true,0.0-2.0-0.14-0.127-3.127,1,1,0,68,false,stim,false,2,359,2,1,1,83476,WMM2,437593,false,false,565,image-keyboard-response,24
true,4,0,4,0,true,q,false,false,0.0-2.0-0.14-0.128-3.128,1,1,0,81,false,stim,false,0,1342,2,0,2,83476,WMM2,440477,false,true,568,image-keyboard-response,25
true,4,2,4,2,true,d,false,true,0.0-2.0-0.14-0.129-3.129,1,1,0,68,false,stim,false,2,684,2,1,0,83476,WMM2,442689,false,false,571,image-keyboard-response,26
true,4,1,4,0,false,q,true,false,0.0-2.0-0.14-0.130-3.130,1,1,0,90,false,stim,false,0,976,2,1,2,83476,WMM2,445200,false,false,574,image-keyboard-response,27
true,4,2,4,2,true,d,false,true,0.0-2.0-0.14-0.131-3.131,1,1,0,68,false,stim,false,2,593,2,0,1,83476,WMM2,447318,false,false,577,image-keyboard-response,28
true,4,2,4,0,false,q,true,false,0.0-2.0-0.14-0.132-3.132,1,1,0,68,false,stim,false,0,985,2,1,2,83476,WMM2,449829,false,false,580,image-keyboard-response,29
true,4,2,4,2,true,d,false,true,0.0-2.0-0.14-0.133-3.133,1,1,0,68,false,stim,false,2,618,2,1,0,83476,WMM2,451981,false,false,583,image-keyboard-response,30
true,4,2,4,2,true,d,false,true,0.0-2.0-0.14-0.134-3.134,1,1,0,68,false,stim,false,2,496,2,1,0,83476,WMM2,453999,false,false,586,image-keyboard-response,31
true,4,0,4,2,false,d,true,false,0.0-2.0-0.15-0.135-3.135,1,1,0,81,false,stim,false,2,518,2,0,1,83476,WMM2,456042,false,false,589,image-keyboard-response,32
true,4,2,4,2,true,d,false,true,0.0-2.0-0.15-0.136-3.136,1,1,0,68,false,stim,false,2,475,2,1,0,83476,WMM2,458040,false,false,592,image-keyboard-response,33
true,4,2,4,2,true,d,false,true,0.0-2.0-0.15-0.137-3.137,1,1,0,68,false,stim,false,2,449,2,0,1,83476,WMM2,460013,false,false,595,image-keyboard-response,34
true,4,2,4,2,true,d,false,true,0.0-2.0-0.15-0.138-3.138,1,1,0,68,false,stim,false,2,477,2,1,0,83476,WMM2,462021,false,false,598,image-keyboard-response,35
true,4,2,4,2,true,d,false,true,0.0-2.0-0.15-0.139-3.139,1,1,0,68,false,stim,false,2,363,2,1,0,83476,WMM2,463905,false,false,601,image-keyboard-response,36
true,5,0,2,0,true,q,false,true,0.0-2.0-0.15-0.140-3.140,1,0,1,81,true,stim,false,0,881,2,1,2,83476,WMM2,466316,false,false,604,image-keyboard-response,1
true,5,2,2,0,false,q,false,false,0.0-2.0-0.15-0.141-3.141,1,0,1,68,false,stim,true,2,1371,2,0,1,83476,WMM2,469225,false,false,607,image-keyboard-response,2
true,5,0,2,0,true,q,false,false,0.0-2.0-0.15-0.142-3.142,1,0,1,81,false,stim,false,0,683,2,1,2,83476,WMM2,471436,false,true,610,image-keyboard-response,3
true,5,0,2,0,true,q,false,true,0.0-2.0-0.15-0.143-3.143,1,0,1,81,false,stim,false,0,515,2,1,2,83476,WMM2,473490,false,false,613,image-keyboard-response,4
true,5,2,2,2,true,d,false,true,0.0-2.0-0.16-0.144-3.144,1,0,1,68,false,stim,false,2,696,2,1,0,83476,WMM2,475712,false,false,616,image-keyboard-response,5
true,5,2,2,0,false,q,true,false,0.0-2.0-0.16-0.145-3.145,1,0,1,68,false,stim,false,0,610,2,1,2,83476,WMM2,477844,false,false,619,image-keyboard-response,6
false,5,-1,2,0,false,q,true,false,0.0-2.0-0.16-0.146-3.146,1,0,1,,false,stim,false,2,,2,0,1,83476,WMM2,482383,false,false,622,image-keyboard-response,7
true,5,2,2,2,true,d,false,true,0.0-2.0-0.16-0.147-3.147,1,0,1,68,false,stim,false,2,570,2,1,0,83476,WMM2,484495,false,false,625,image-keyboard-response,8
true,5,0,2,0,true,q,false,true,0.0-2.0-0.16-0.148-3.148,1,0,1,81,false,stim,false,0,673,2,1,2,83476,WMM2,486696,false,false,628,image-keyboard-response,9
true,5,2,2,2,true,d,false,true,0.0-2.0-0.16-0.149-3.149,1,0,1,68,false,stim,false,2,825,2,1,0,83476,WMM2,489048,false,false,631,image-keyboard-response,10
true,5,2,2,0,false,q,false,false,0.0-2.0-0.16-0.150-3.150,1,0,1,68,false,stim,true,2,667,2,0,1,83476,WMM2,491240,false,false,634,image-keyboard-response,11
true,5,1,2,0,false,q,true,false,0.0-2.0-0.16-0.151-3.151,1,0,1,90,false,stim,false,2,743,2,0,1,83476,WMM2,493517,false,false,637,image-keyboard-response,12
true,5,0,2,0,true,q,false,true,0.0-2.0-0.16-0.152-3.152,1,0,1,81,false,stim,false,0,731,2,1,2,83476,WMM2,495785,false,false,640,image-keyboard-response,13
true,5,0,2,0,true,q,false,true,0.0-2.0-0.17-0.153-3.153,1,0,1,81,false,stim,false,0,745,2,1,2,83476,WMM2,498070,false,false,643,image-keyboard-response,14
true,5,0,2,0,true,q,false,true,0.0-2.0-0.17-0.154-3.154,1,0,1,81,false,stim,false,0,1216,2,1,2,83476,WMM2,500819,false,false,646,image-keyboard-response,15
true,5,2,2,0,false,q,false,false,0.0-2.0-0.17-0.155-3.155,1,0,1,68,false,stim,true,2,881,2,0,1,83476,WMM2,503225,false,false,649,image-keyboard-response,16
false,5,-1,2,0,false,q,true,false,0.0-2.0-0.17-0.156-3.156,1,0,1,,false,stim,false,2,,2,0,1,83476,WMM2,507783,false,false,652,image-keyboard-response,17
true,5,2,2,2,true,d,false,true,0.0-2.0-0.17-0.157-3.157,1,0,1,68,false,stim,false,2,976,2,1,0,83476,WMM2,510300,false,false,655,image-keyboard-response,18
true,5,2,2,0,false,q,false,false,0.0-2.0-0.17-0.158-3.158,1,0,1,68,false,stim,true,2,1046,2,0,1,83476,WMM2,512871,false,false,658,image-keyboard-response,19
true,5,0,2,0,true,q,false,true,0.0-2.0-0.17-0.159-3.159,1,0,1,81,false,stim,false,0,763,2,1,2,83476,WMM2,515167,false,false,661,image-keyboard-response,20
true,5,2,2,2,true,d,false,true,0.0-2.0-0.17-0.160-3.160,1,0,1,68,false,stim,false,2,724,2,1,0,83476,WMM2,517429,false,false,664,image-keyboard-response,21
true,5,2,2,2,true,d,false,true,0.0-2.0-0.17-0.161-3.161,1,0,1,68,false,stim,false,2,448,2,1,0,83476,WMM2,519412,false,false,667,image-keyboard-response,22
true,5,0,2,0,true,q,false,true,0.0-2.0-0.18-0.162-3.162,1,0,1,81,false,stim,false,2,500,2,0,1,83476,WMM2,521434,false,false,670,image-keyboard-response,23
true,5,0,2,0,true,q,false,true,0.0-2.0-0.18-0.163-3.163,1,0,1,81,false,stim,false,0,704,2,1,2,83476,WMM2,523678,false,false,673,image-keyboard-response,24
true,5,0,2,0,true,q,false,true,0.0-2.0-0.18-0.164-3.164,1,0,1,81,false,stim,false,0,450,2,1,2,83476,WMM2,525665,false,false,676,image-keyboard-response,25
true,5,0,2,0,true,q,false,true,0.0-2.0-0.18-0.165-3.165,1,0,1,81,false,stim,false,2,898,2,0,1,83476,WMM2,528091,false,false,679,image-keyboard-response,26
true,5,0,2,0,true,q,false,true,0.0-2.0-0.18-0.166-3.166,1,0,1,81,false,stim,false,0,1039,2,1,2,83476,WMM2,530674,false,false,682,image-keyboard-response,27
true,5,2,2,2,true,d,false,true,0.0-2.0-0.18-0.167-3.167,1,0,1,68,false,stim,false,2,511,2,0,0,83476,WMM2,532724,false,false,685,image-keyboard-response,28
true,5,2,2,2,true,d,false,true,0.0-2.0-0.18-0.168-3.168,1,0,1,68,false,stim,false,2,363,2,0,0,83476,WMM2,534617,false,false,688,image-keyboard-response,29
true,5,0,2,0,true,q,false,true,0.0-2.0-0.18-0.169-3.169,1,0,1,81,false,stim,false,2,1617,2,1,1,83476,WMM2,537771,false,false,691,image-keyboard-response,30
true,5,2,2,2,true,d,false,true,0.0-2.0-0.18-0.170-3.170,1,0,1,68,false,stim,false,2,697,2,0,0,83476,WMM2,539992,false,false,694,image-keyboard-response,31
true,5,0,2,0,true,q,false,false,0.0-2.0-0.19-0.171-3.171,1,0,1,81,false,stim,false,2,2116,2,1,1,83476,WMM2,543630,false,true,697,image-keyboard-response,32
true,5,2,2,0,false,q,false,true,0.0-2.0-0.19-0.172-3.172,1,0,1,68,false,stim,true,2,742,2,1,1,83476,WMM2,545896,false,true,700,image-keyboard-response,33
true,5,0,2,0,true,q,false,true,0.0-2.0-0.19-0.173-3.173,1,0,1,81,false,stim,false,0,565,2,1,2,83476,WMM2,548000,false,false,703,image-keyboard-response,34
true,5,0,2,0,true,q,false,false,0.0-2.0-0.19-0.174-3.174,1,0,1,81,false,stim,false,0,422,2,1,2,83476,WMM2,549957,false,true,706,image-keyboard-response,35
true,5,2,2,2,true,d,false,true,0.0-2.0-0.19-0.175-3.175,1,0,1,68,false,stim,false,2,1227,2,0,0,83476,WMM2,552722,false,false,709,image-keyboard-response,36
true,6,2,4,2,true,d,false,true,0.0-2.0-0.19-0.176-3.176,0,1,1,68,true,stim,false,2,346,2,0,0,83476,WMM2,554601,false,false,712,image-keyboard-response,1
true,6,0,4,0,true,q,false,false,0.0-2.0-0.19-0.177-3.177,0,1,1,81,false,stim,false,0,1565,2,1,2,83476,WMM2,557698,false,true,715,image-keyboard-response,2
true,6,2,4,2,true,d,false,true,0.0-2.0-0.19-0.178-3.178,0,1,1,68,false,stim,false,2,438,2,0,0,83476,WMM2,559672,false,false,718,image-keyboard-response,3
true,6,0,4,0,true,q,false,true,0.0-2.0-0.19-0.179-3.179,0,1,1,81,false,stim,false,0,1746,2,1,1,83476,WMM2,562960,false,false,721,image-keyboard-response,4
true,6,0,4,0,true,q,false,false,0.0-2.0-0.20-0.180-3.180,0,1,1,81,false,stim,false,0,1770,2,1,2,83476,WMM2,566254,false,true,724,image-keyboard-response,5
true,6,2,4,0,false,q,true,false,0.0-2.0-0.20-0.181-3.181,0,1,1,68,false,stim,false,0,722,2,1,1,83476,WMM2,568506,false,false,727,image-keyboard-response,6
true,6,0,4,0,true,q,false,true,0.0-2.0-0.20-0.182-3.182,0,1,1,81,false,stim,false,0,1082,2,1,1,83476,WMM2,571126,false,false,730,image-keyboard-response,7
true,6,0,4,0,true,q,false,true,0.0-2.0-0.20-0.183-3.183,0,1,1,81,false,stim,false,0,375,2,1,1,83476,WMM2,573029,false,false,733,image-keyboard-response,8
true,6,2,4,2,true,d,false,false,0.0-2.0-0.20-0.184-3.184,0,1,1,68,false,stim,false,2,971,2,0,0,83476,WMM2,575525,false,true,736,image-keyboard-response,9
true,6,1,4,0,false,q,true,true,0.0-2.0-0.20-0.185-3.185,0,1,1,90,false,stim,false,0,977,2,1,2,83476,WMM2,578031,false,true,739,image-keyboard-response,10
true,6,1,4,2,false,d,true,false,0.0-2.0-0.20-0.186-3.186,0,1,1,90,false,stim,false,2,1215,2,0,0,83476,WMM2,580766,false,false,742,image-keyboard-response,11
true,6,2,4,2,true,d,false,true,0.0-2.0-0.20-0.187-3.187,0,1,1,68,false,stim,false,2,808,2,0,0,83476,WMM2,583098,false,false,745,image-keyboard-response,12
true,6,1,4,0,false,q,true,true,0.0-2.0-0.20-0.188-3.188,0,1,1,90,false,stim,false,0,850,2,1,2,83476,WMM2,585485,false,true,748,image-keyboard-response,13
true,6,2,4,2,true,d,false,true,0.0-2.0-0.21-0.189-3.189,0,1,1,68,false,stim,false,2,733,2,0,0,83476,WMM2,587746,false,false,751,image-keyboard-response,14
true,6,0,4,0,true,q,false,true,0.0-2.0-0.21-0.190-3.190,0,1,1,81,false,stim,false,0,599,2,1,1,83476,WMM2,589874,false,false,754,image-keyboard-response,15
true,6,2,4,2,true,d,false,true,0.0-2.0-0.21-0.191-3.191,0,1,1,68,false,stim,false,2,751,2,0,0,83476,WMM2,592165,false,false,757,image-keyboard-response,16
true,6,1,4,0,false,q,true,true,0.0-2.0-0.21-0.192-3.192,0,1,1,90,false,stim,false,0,737,2,1,2,83476,WMM2,594432,false,true,760,image-keyboard-response,17
true,6,2,4,2,true,d,false,false,0.0-2.0-0.21-0.193-3.193,0,1,1,68,false,stim,false,2,2183,2,0,0,83476,WMM2,598138,false,true,763,image-keyboard-response,18
true,6,0,4,0,true,q,false,true,0.0-2.0-0.21-0.194-3.194,0,1,1,81,false,stim,false,0,909,2,1,1,83476,WMM2,600584,false,false,766,image-keyboard-response,19
true,6,0,4,0,true,q,false,true,0.0-2.0-0.21-0.195-3.195,0,1,1,81,false,stim,false,0,463,2,1,1,83476,WMM2,602577,false,false,769,image-keyboard-response,20
true,6,1,4,0,false,q,true,false,0.0-2.0-0.21-0.196-3.196,0,1,1,90,false,stim,false,0,1523,2,1,2,83476,WMM2,605636,false,false,772,image-keyboard-response,21
true,6,1,4,0,false,q,true,false,0.0-2.0-0.21-0.197-3.197,0,1,1,90,false,stim,false,0,1366,2,1,2,83476,WMM2,608540,false,false,775,image-keyboard-response,22
true,6,2,4,0,false,q,true,false,0.0-2.0-0.22-0.198-3.198,0,1,1,68,false,stim,false,0,654,2,1,2,83476,WMM2,610728,false,false,778,image-keyboard-response,23
true,6,2,4,2,true,d,false,true,0.0-2.0-0.22-0.199-3.199,0,1,1,68,false,stim,false,2,786,2,0,0,83476,WMM2,613040,false,false,781,image-keyboard-response,24
true,6,0,4,0,true,q,false,true,0.0-2.0-0.22-0.200-3.200,0,1,1,81,false,stim,false,0,644,2,1,2,83476,WMM2,615217,false,false,784,image-keyboard-response,25
true,6,1,4,0,false,q,true,false,0.0-2.0-0.22-0.201-3.201,0,1,1,90,false,stim,false,0,566,2,1,1,83476,WMM2,617320,false,false,787,image-keyboard-response,26
true,6,0,4,0,true,q,false,true,0.0-2.0-0.22-0.202-3.202,0,1,1,81,false,stim,false,0,617,2,1,2,83476,WMM2,619472,false,false,790,image-keyboard-response,27
true,6,0,4,0,true,q,false,true,0.0-2.0-0.22-0.203-3.203,0,1,1,81,false,stim,false,0,1125,2,1,1,83476,WMM2,622138,false,false,793,image-keyboard-response,28
true,6,0,4,0,true,q,false,true,0.0-2.0-0.22-0.204-3.204,0,1,1,81,false,stim,false,0,375,2,1,1,83476,WMM2,624049,false,false,796,image-keyboard-response,29
true,6,2,4,2,true,d,false,false,0.0-2.0-0.22-0.205-3.205,0,1,1,68,false,stim,false,2,514,2,1,0,83476,WMM2,626088,false,true,799,image-keyboard-response,30
true,6,2,4,2,true,d,false,false,0.0-2.0-0.22-0.206-3.206,0,1,1,68,false,stim,false,2,615,2,1,0,83476,WMM2,628231,false,true,802,image-keyboard-response,31
true,6,0,4,2,false,d,true,false,0.0-2.0-0.23-0.207-3.207,0,1,1,81,false,stim,false,2,555,2,1,0,83476,WMM2,630309,false,false,805,image-keyboard-response,32
true,6,1,4,2,false,d,true,false,0.0-2.0-0.23-0.208-3.208,0,1,1,90,false,stim,false,2,447,2,1,0,83476,WMM2,632281,false,false,808,image-keyboard-response,33
true,6,0,4,0,true,q,false,true,0.0-2.0-0.23-0.209-3.209,0,1,1,81,false,stim,false,0,678,2,1,1,83476,WMM2,634483,false,false,811,image-keyboard-response,34
true,6,0,4,0,true,q,false,true,0.0-2.0-0.23-0.210-3.210,0,1,1,81,false,stim,false,0,955,2,0,2,83476,WMM2,636979,false,false,814,image-keyboard-response,35
true,6,0,4,2,false,d,true,false,0.0-2.0-0.23-0.211-3.211,0,1,1,81,false,stim,false,2,781,2,1,0,83476,WMM2,639284,false,false,817,image-keyboard-response,36
true,6,2,4,0,false,q,true,false,0.0-2.0-0.23-0.212-3.212,0,1,1,68,false,stim,false,0,1569,2,1,1,83476,WMM2,642395,false,false,820,image-keyboard-response,37
true,6,1,4,0,false,q,true,false,0.0-2.0-0.23-0.213-3.213,0,1,1,90,false,stim,false,0,588,2,0,2,83476,WMM2,644512,false,false,823,image-keyboard-response,38
true,6,0,4,0,true,q,false,true,0.0-2.0-0.23-0.214-3.214,0,1,1,81,false,stim,false,0,370,2,0,2,83476,WMM2,646415,false,false,826,image-keyboard-response,39
true,7,2,3,0,false,q,true,false,0.0-2.0-0.23-0.215-3.215,1,1,0,68,true,stim,false,0,1730,2,1,1,83476,WMM2,649673,false,false,829,image-keyboard-response,1
true,7,0,3,2,false,d,false,false,0.0-2.0-0.24-0.216-3.216,1,1,0,81,false,stim,true,0,1050,2,0,2,83476,WMM2,652254,false,false,832,image-keyboard-response,2
true,7,1,3,0,false,q,true,false,0.0-2.0-0.24-0.217-3.217,1,1,0,90,false,stim,false,0,477,2,1,1,83476,WMM2,654271,false,false,835,image-keyboard-response,3
true,7,2,3,0,false,q,true,false,0.0-2.0-0.24-0.218-3.218,1,1,0,68,false,stim,false,0,576,2,1,1,83476,WMM2,656360,false,false,838,image-keyboard-response,4
true,7,0,3,0,true,q,false,false,0.0-2.0-0.24-0.219-3.219,1,1,0,81,false,stim,false,0,180,2,1,1,83476,WMM2,658063,false,true,841,image-keyboard-response,5
true,7,0,3,2,false,d,true,false,0.0-2.0-0.24-0.220-3.220,1,1,0,81,false,stim,false,2,656,2,1,0,83476,WMM2,660260,false,false,844,image-keyboard-response,6
true,7,1,3,2,false,d,true,true,0.0-2.0-0.24-0.221-3.221,1,1,0,90,false,stim,false,2,612,2,1,0,83476,WMM2,662396,false,true,847,image-keyboard-response,7
true,7,1,3,2,false,d,true,false,0.0-2.0-0.24-0.222-3.222,1,1,0,90,false,stim,false,2,376,2,1,0,83476,WMM2,664300,false,false,850,image-keyboard-response,8
true,7,0,3,2,false,d,false,false,0.0-2.0-0.24-0.223-3.223,1,1,0,81,false,stim,true,0,543,2,0,2,83476,WMM2,666367,false,false,853,image-keyboard-response,9
true,7,0,3,2,false,d,false,false,0.0-2.0-0.24-0.224-3.224,1,1,0,81,false,stim,true,0,741,2,0,2,83476,WMM2,668644,false,false,856,image-keyboard-response,10
true,7,2,3,0,false,q,true,false,0.0-2.0-0.25-0.225-3.225,1,1,0,68,false,stim,false,0,583,2,1,1,83476,WMM2,670766,false,false,859,image-keyboard-response,11
true,7,1,3,2,false,d,true,true,0.0-2.0-0.25-0.226-3.226,1,1,0,90,false,stim,false,2,805,2,1,0,83476,WMM2,673109,false,true,862,image-keyboard-response,12
true,7,0,3,0,true,q,false,false,0.0-2.0-0.25-0.227-3.227,1,1,0,81,false,stim,false,0,401,2,1,1,83476,WMM2,675036,false,true,865,image-keyboard-response,13
true,7,1,3,2,false,d,true,false,0.0-2.0-0.25-0.228-3.228,1,1,0,90,false,stim,false,0,938,2,0,2,83476,WMM2,677513,false,false,868,image-keyboard-response,14
true,7,2,3,2,true,d,false,true,0.0-2.0-0.25-0.229-3.229,1,1,0,68,false,stim,false,0,801,2,0,2,83476,WMM2,679854,false,false,871,image-keyboard-response,15
true,7,2,3,0,false,q,true,false,0.0-2.0-0.25-0.230-3.230,1,1,0,68,false,stim,false,0,466,2,1,1,83476,WMM2,681860,false,false,874,image-keyboard-response,16
true,7,1,3,2,false,d,true,true,0.0-2.0-0.25-0.231-3.231,1,1,0,90,false,stim,false,2,635,2,1,0,83476,WMM2,684007,false,true,877,image-keyboard-response,17
true,7,2,3,2,true,d,false,true,0.0-2.0-0.25-0.232-3.232,1,1,0,68,false,stim,false,0,740,2,0,2,83476,WMM2,686263,false,false,880,image-keyboard-response,18
true,7,1,3,2,false,d,true,false,0.0-2.0-0.25-0.233-3.233,1,1,0,90,false,stim,false,2,518,2,1,0,83476,WMM2,688323,false,false,883,image-keyboard-response,19
true,7,2,3,2,true,d,false,true,0.0-2.0-0.26-0.234-3.234,1,1,0,68,false,stim,false,0,491,2,0,2,83476,WMM2,690336,false,false,886,image-keyboard-response,20
true,7,1,3,2,false,d,true,false,0.0-2.0-0.26-0.235-3.235,1,1,0,90,false,stim,false,2,538,2,1,0,83476,WMM2,692403,false,false,889,image-keyboard-response,21
true,7,0,3,2,false,d,true,false,0.0-2.0-0.26-0.236-3.236,1,1,0,81,false,stim,false,2,710,2,1,0,83476,WMM2,694655,false,false,892,image-keyboard-response,22
true,7,2,3,2,true,d,false,true,0.0-2.0-0.26-0.237-3.237,1,1,0,68,false,stim,false,2,528,2,1,0,83476,WMM2,696712,false,false,895,image-keyboard-response,23
true,7,1,3,0,false,q,true,false,0.0-2.0-0.26-0.238-3.238,1,1,0,90,false,stim,false,0,1129,2,1,1,83476,WMM2,699372,false,false,898,image-keyboard-response,24
true,7,2,3,2,true,d,false,true,0.0-2.0-0.26-0.239-3.239,1,1,0,68,false,stim,false,0,467,2,0,2,83476,WMM2,701381,false,false,901,image-keyboard-response,25
true,7,2,3,2,true,d,false,true,0.0-2.0-0.26-0.240-3.240,1,1,0,68,false,stim,false,0,368,2,0,2,83476,WMM2,703293,false,false,904,image-keyboard-response,26
true,7,2,3,0,false,q,true,false,0.0-2.0-0.26-0.241-3.241,1,1,0,68,false,stim,false,0,920,2,1,1,83476,WMM2,705744,false,false,907,image-keyboard-response,27
true,7,1,3,0,false,q,true,false,0.0-2.0-0.26-0.242-3.242,1,1,0,90,false,stim,false,0,1534,2,1,1,83476,WMM2,708818,false,false,910,image-keyboard-response,28
true,7,0,3,0,true,q,false,true,0.0-2.0-0.27-0.243-3.243,1,1,0,81,false,stim,false,0,528,2,1,1,83476,WMM2,710870,false,false,913,image-keyboard-response,29
true,7,0,3,0,true,q,false,false,0.0-2.0-0.27-0.244-3.244,1,1,0,81,false,stim,false,0,349,2,1,1,83476,WMM2,712754,false,true,916,image-keyboard-response,30
true,7,2,3,2,true,d,false,true,0.0-2.0-0.27-0.245-3.245,1,1,0,68,false,stim,false,2,770,2,1,0,83476,WMM2,715055,false,false,919,image-keyboard-response,31
true,7,2,3,2,true,d,false,true,0.0-2.0-0.27-0.246-3.246,1,1,0,68,false,stim,false,0,642,2,0,2,83476,WMM2,717227,false,false,922,image-keyboard-response,32
true,7,0,3,0,true,q,false,true,0.0-2.0-0.27-0.247-3.247,1,1,0,81,false,stim,false,0,555,2,0,1,83476,WMM2,719320,false,false,925,image-keyboard-response,33
true,7,2,3,2,true,d,false,true,0.0-2.0-0.27-0.248-3.248,1,1,0,68,false,stim,false,0,711,2,1,2,83476,WMM2,721557,false,false,928,image-keyboard-response,34
true,7,2,3,2,true,d,false,true,0.0-2.0-0.27-0.249-3.249,1,1,0,68,false,stim,false,0,465,2,1,2,83476,WMM2,723560,false,false,931,image-keyboard-response,35
true,7,2,3,2,true,d,false,true,0.0-2.0-0.27-0.250-3.250,1,1,0,68,false,stim,false,2,822,2,1,0,83476,WMM2,725916,false,false,934,image-keyboard-response,36
true,7,2,3,2,true,d,false,true,0.0-2.0-0.27-0.251-3.251,1,1,0,68,false,stim,false,2,479,2,1,0,83476,WMM2,727935,false,false,937,image-keyboard-response,37
true,7,0,3,0,true,q,false,true,0.0-2.0-0.28-0.252-3.252,1,1,0,81,false,stim,false,0,896,2,0,1,83476,WMM2,730368,false,false,940,image-keyboard-response,38
true,7,2,3,2,true,d,false,false,0.0-2.0-0.28-0.253-3.253,1,1,0,68,false,stim,false,0,1027,2,1,2,83476,WMM2,732932,false,true,943,image-keyboard-response,39
true,7,2,3,2,true,d,false,true,0.0-2.0-0.28-0.254-3.254,1,1,0,68,false,stim,false,2,524,2,1,0,83476,WMM2,734987,false,false,946,image-keyboard-response,40
true,7,2,3,2,true,d,false,true,0.0-2.0-0.28-0.255-3.255,1,1,0,68,false,stim,false,2,369,2,1,0,83476,WMM2,736892,false,false,949,image-keyboard-response,41
true,7,0,3,0,true,q,false,true,0.0-2.0-0.28-0.256-3.256,1,1,0,81,false,stim,false,0,793,2,0,1,83476,WMM2,739218,false,false,952,image-keyboard-response,42
true,8,2,3,2,true,d,false,true,0.0-2.0-0.28-0.257-3.257,1,0,1,68,true,stim,false,2,815,2,1,0,83476,WMM2,741559,false,false,955,image-keyboard-response,1
true,8,0,3,2,false,d,true,false,0.0-2.0-0.28-0.258-3.258,1,0,1,81,false,stim,false,2,732,2,1,2,83476,WMM2,743817,false,false,958,image-keyboard-response,2
true,8,2,3,1,false,z,true,false,0.0-2.0-0.28-0.259-3.259,1,0,1,68,false,stim,false,0,551,2,0,1,83476,WMM2,745896,false,false,961,image-keyboard-response,3
true,8,2,3,2,true,d,false,true,0.0-2.0-0.28-0.260-3.260,1,0,1,68,false,stim,false,2,591,2,1,2,83476,WMM2,748016,false,false,964,image-keyboard-response,4
true,8,1,3,1,true,z,false,true,0.0-2.0-0.29-0.261-3.261,1,0,1,90,false,stim,false,0,817,2,0,1,83476,WMM2,750362,false,false,967,image-keyboard-response,5
true,8,2,3,2,true,d,false,true,0.0-2.0-0.29-0.262-3.262,1,0,1,68,false,stim,false,2,1060,2,1,2,83476,WMM2,752963,false,false,970,image-keyboard-response,6
true,8,2,3,2,true,d,false,false,0.0-2.0-0.29-0.263-3.263,1,0,1,68,false,stim,false,2,1192,2,1,0,83476,WMM2,755698,false,true,973,image-keyboard-response,7
true,8,1,3,1,true,z,false,true,0.0-2.0-0.29-0.264-3.264,1,0,1,90,false,stim,false,0,629,2,0,1,83476,WMM2,757853,false,false,976,image-keyboard-response,8
true,8,2,3,2,true,d,false,true,0.0-2.0-0.29-0.265-3.265,1,0,1,68,false,stim,false,2,732,2,1,2,83476,WMM2,760117,false,false,979,image-keyboard-response,9
true,8,1,3,1,true,z,false,true,0.0-2.0-0.29-0.266-3.266,1,0,1,90,false,stim,false,0,684,2,0,1,83476,WMM2,762329,false,false,982,image-keyboard-response,10
true,8,2,3,2,true,d,false,true,0.0-2.0-0.29-0.267-3.267,1,0,1,68,false,stim,false,2,746,2,1,0,83476,WMM2,764610,false,false,985,image-keyboard-response,11
true,8,2,3,2,true,d,false,false,0.0-2.0-0.29-0.268-3.268,1,0,1,68,false,stim,false,2,330,2,1,0,83476,WMM2,766465,false,true,988,image-keyboard-response,12
true,8,1,3,2,false,d,true,false,0.0-2.0-0.29-0.269-3.269,1,0,1,90,false,stim,false,2,1648,2,1,2,83476,WMM2,769643,false,false,991,image-keyboard-response,13
true,8,2,3,2,true,d,false,true,0.0-2.0-0.30-0.270-3.270,1,0,1,68,false,stim,false,2,1163,2,1,0,83476,WMM2,772327,false,false,994,image-keyboard-response,14
true,8,2,3,2,true,d,false,true,0.0-2.0-0.30-0.271-3.271,1,0,1,68,false,stim,false,2,1318,2,1,2,83476,WMM2,775182,false,false,997,image-keyboard-response,15
true,8,2,3,2,true,d,false,true,0.0-2.0-0.30-0.272-3.272,1,0,1,68,false,stim,false,2,928,2,1,0,83476,WMM2,777654,false,false,1000,image-keyboard-response,16
true,8,2,3,2,true,d,false,true,0.0-2.0-0.30-0.273-3.273,1,0,1,68,false,stim,false,2,616,2,1,2,83476,WMM2,779800,false,false,1003,image-keyboard-response,17
true,8,0,3,1,false,z,false,false,0.0-2.0-0.30-0.274-3.274,1,0,1,81,false,stim,true,0,1291,2,0,1,83476,WMM2,782615,false,false,1006,image-keyboard-response,18
true,8,1,3,1,true,z,false,true,0.0-2.0-0.30-0.275-3.275,1,0,1,90,false,stim,false,0,798,2,0,1,83476,WMM2,784942,false,false,1009,image-keyboard-response,19
true,8,2,3,2,true,d,false,false,0.0-2.0-0.30-0.276-3.276,1,0,1,68,false,stim,false,2,660,2,1,0,83476,WMM2,787145,false,true,1012,image-keyboard-response,20
true,8,2,3,2,true,d,false,true,0.0-2.0-0.30-0.277-3.277,1,0,1,68,false,stim,false,2,572,2,1,2,83476,WMM2,789256,false,false,1015,image-keyboard-response,21
true,8,1,3,1,true,z,false,true,0.0-2.0-0.30-0.278-3.278,1,0,1,90,false,stim,false,0,560,2,0,1,83476,WMM2,791343,false,false,1018,image-keyboard-response,22
true,8,2,3,2,true,d,false,true,0.0-2.0-0.31-0.279-3.279,1,0,1,68,false,stim,false,2,706,2,1,0,83476,WMM2,793591,false,false,1021,image-keyboard-response,23
true,8,1,3,1,true,z,false,true,0.0-2.0-0.31-0.280-3.280,1,0,1,90,false,stim,false,0,549,2,1,1,83476,WMM2,795674,false,false,1024,image-keyboard-response,24
true,8,2,3,2,true,d,false,true,0.0-2.0-0.31-0.281-3.281,1,0,1,68,false,stim,false,2,1049,2,0,2,83476,WMM2,798255,false,false,1027,image-keyboard-response,25
true,8,1,3,1,true,z,false,false,0.0-2.0-0.31-0.282-3.282,1,0,1,90,false,stim,false,0,770,2,1,1,83476,WMM2,800555,false,true,1030,image-keyboard-response,26
true,8,2,3,2,true,d,false,false,0.0-2.0-0.31-0.283-3.283,1,0,1,68,false,stim,false,2,560,2,1,0,83476,WMM2,802643,false,true,1033,image-keyboard-response,27
true,8,2,3,1,false,z,true,false,0.0-2.0-0.31-0.284-3.284,1,0,1,68,false,stim,false,0,386,2,1,1,83476,WMM2,804570,false,false,1036,image-keyboard-response,28
true,8,2,3,2,true,d,false,true,0.0-2.0-0.31-0.285-3.285,1,0,1,68,false,stim,false,2,565,2,0,2,83476,WMM2,806670,false,false,1039,image-keyboard-response,29
true,8,2,3,2,true,d,false,true,0.0-2.0-0.31-0.286-3.286,1,0,1,68,false,stim,false,2,1258,2,1,0,83476,WMM2,809452,false,false,1042,image-keyboard-response,30
true,8,2,3,2,true,d,false,true,0.0-2.0-0.31-0.287-3.287,1,0,1,68,false,stim,false,2,2484,2,0,2,83476,WMM2,813478,false,false,1045,image-keyboard-response,31
true,8,1,3,1,true,z,false,true,0.0-2.0-0.32-0.288-3.288,1,0,1,90,false,stim,false,0,660,2,1,1,83476,WMM2,815674,false,false,1048,image-keyboard-response,32
true,9,2,2,2,true,d,false,true,0.0-2.0-0.32-0.289-3.289,1,1,0,68,true,stim,false,2,737,2,1,0,83476,WMM2,817953,false,false,1051,image-keyboard-response,1
true,9,2,2,2,true,d,false,true,0.0-2.0-0.32-0.290-3.290,1,1,0,68,false,stim,false,2,411,2,1,0,83476,WMM2,819905,false,false,1054,image-keyboard-response,2
true,9,2,2,1,false,z,false,false,0.0-2.0-0.32-0.291-3.291,1,1,0,68,false,stim,true,2,816,2,0,2,83476,WMM2,822250,false,false,1057,image-keyboard-response,3
true,9,2,2,1,false,z,true,false,0.0-2.0-0.32-0.292-3.292,1,1,0,68,false,stim,false,1,573,2,1,1,83476,WMM2,824349,false,false,1060,image-keyboard-response,4
true,9,2,2,1,false,z,false,false,0.0-2.0-0.32-0.293-3.293,1,1,0,68,false,stim,true,2,730,2,0,2,83476,WMM2,826605,false,false,1063,image-keyboard-response,5
true,9,2,2,2,true,d,false,true,0.0-2.0-0.32-0.294-3.294,1,1,0,68,false,stim,false,2,698,2,1,0,83476,WMM2,828832,false,false,1066,image-keyboard-response,6
true,9,1,2,1,true,z,false,false,0.0-2.0-0.32-0.295-3.295,1,1,0,90,false,stim,false,2,1238,2,0,2,83476,WMM2,831604,false,true,1069,image-keyboard-response,7
true,9,2,2,1,false,z,true,false,0.0-2.0-0.32-0.296-3.296,1,1,0,68,false,stim,false,1,511,2,1,1,83476,WMM2,833655,false,false,1072,image-keyboard-response,8
true,9,0,2,1,false,z,true,false,0.0-2.0-0.33-0.297-3.297,1,1,0,81,false,stim,false,1,672,2,1,1,83476,WMM2,835857,false,false,1075,image-keyboard-response,9
true,9,1,2,1,true,z,false,true,0.0-2.0-0.33-0.298-3.298,1,1,0,90,false,stim,false,1,1143,2,1,1,83476,WMM2,838539,false,false,1078,image-keyboard-response,10
true,9,2,2,1,false,z,false,false,0.0-2.0-0.33-0.299-3.299,1,1,0,68,false,stim,true,2,749,2,0,2,83476,WMM2,840814,false,false,1081,image-keyboard-response,11
true,9,2,2,2,true,d,false,true,0.0-2.0-0.33-0.300-3.300,1,1,0,68,false,stim,false,2,851,2,1,0,83476,WMM2,843195,false,false,1084,image-keyboard-response,12
true,9,2,2,2,true,d,false,false,0.0-2.0-0.33-0.301-3.301,1,1,0,68,false,stim,false,2,668,2,1,0,83476,WMM2,845393,false,true,1087,image-keyboard-response,13
true,9,0,2,1,false,z,true,false,0.0-2.0-0.33-0.302-3.302,1,1,0,81,false,stim,false,2,655,2,0,2,83476,WMM2,847581,false,false,1090,image-keyboard-response,14
true,9,2,2,2,true,d,false,true,0.0-2.0-0.33-0.303-3.303,1,1,0,68,false,stim,false,2,1184,2,1,0,83476,WMM2,850290,false,false,1093,image-keyboard-response,15
true,9,1,2,1,true,z,false,true,0.0-2.0-0.33-0.304-3.304,1,1,0,90,false,stim,false,2,384,2,0,2,83476,WMM2,852209,false,false,1096,image-keyboard-response,16
true,9,2,2,1,false,z,true,false,0.0-2.0-0.33-0.305-3.305,1,1,0,68,false,stim,false,1,551,2,1,1,83476,WMM2,854295,false,false,1099,image-keyboard-response,17
true,9,1,2,1,true,z,false,true,0.0-2.0-0.34-0.306-3.306,1,1,0,90,false,stim,false,2,384,2,0,2,83476,WMM2,856209,false,false,1102,image-keyboard-response,18
true,9,1,2,1,true,z,false,true,0.0-2.0-0.34-0.307-3.307,1,1,0,90,false,stim,false,2,352,2,0,2,83476,WMM2,858096,false,false,1105,image-keyboard-response,19
true,9,1,2,1,true,z,false,true,0.0-2.0-0.34-0.308-3.308,1,1,0,90,false,stim,false,2,394,2,0,2,83476,WMM2,860019,false,false,1108,image-keyboard-response,20
true,9,0,2,1,false,z,true,false,0.0-2.0-0.34-0.309-3.309,1,1,0,81,false,stim,false,1,563,2,1,1,83476,WMM2,862128,false,false,1111,image-keyboard-response,21
true,9,1,2,1,true,z,false,true,0.0-2.0-0.34-0.310-3.310,1,1,0,90,false,stim,false,1,633,2,1,1,83476,WMM2,864294,false,false,1114,image-keyboard-response,22
true,9,1,2,2,false,d,true,false,0.0-2.0-0.34-0.311-3.311,1,1,0,90,false,stim,false,2,1070,2,1,0,83476,WMM2,866895,false,false,1117,image-keyboard-response,23
true,9,1,2,1,true,z,false,false,0.0-2.0-0.34-0.312-3.312,1,1,0,90,false,stim,false,1,473,2,1,1,83476,WMM2,868898,false,true,1120,image-keyboard-response,24
true,9,2,2,2,true,d,false,true,0.0-2.0-0.34-0.313-3.313,1,1,0,68,false,stim,false,2,1119,2,1,0,83476,WMM2,871543,false,false,1123,image-keyboard-response,25
true,9,2,2,2,true,d,false,true,0.0-2.0-0.34-0.314-3.314,1,1,0,68,false,stim,false,2,461,2,1,0,83476,WMM2,873546,false,false,1126,image-keyboard-response,26
true,9,2,2,2,true,d,false,true,0.0-2.0-0.35-0.315-3.315,1,1,0,68,false,stim,false,2,344,2,1,0,83476,WMM2,875429,false,false,1129,image-keyboard-response,27
true,9,1,2,1,true,z,false,true,0.0-2.0-0.35-0.316-3.316,1,1,0,90,false,stim,false,2,1344,2,0,2,83476,WMM2,878308,false,false,1132,image-keyboard-response,28
true,9,1,2,1,true,z,false,true,0.0-2.0-0.35-0.317-3.317,1,1,0,90,false,stim,false,2,602,2,0,2,83476,WMM2,880446,false,false,1135,image-keyboard-response,29
true,9,2,2,2,true,d,false,false,0.0-2.0-0.35-0.318-3.318,1,1,0,68,false,stim,false,2,690,2,1,0,83476,WMM2,882674,false,true,1138,image-keyboard-response,30
true,9,1,2,1,true,z,false,true,0.0-2.0-0.35-0.319-3.319,1,1,0,90,false,stim,false,1,1281,2,1,1,83476,WMM2,885487,false,false,1141,image-keyboard-response,31
true,9,1,2,1,true,z,false,true,0.0-2.0-0.35-0.320-3.320,1,1,0,90,false,stim,false,1,380,2,1,1,83476,WMM2,887405,false,false,1144,image-keyboard-response,32
true,9,2,2,2,true,d,false,true,0.0-2.0-0.35-0.321-3.321,1,1,0,68,false,stim,false,2,659,2,1,0,83476,WMM2,889603,false,false,1147,image-keyboard-response,33
true,9,1,2,1,true,z,false,true,0.0-2.0-0.35-0.322-3.322,1,1,0,90,false,stim,false,1,571,2,1,1,83476,WMM2,891716,false,false,1150,image-keyboard-response,34
true,9,1,2,1,true,z,false,true,0.0-2.0-0.35-0.323-3.323,1,1,0,90,false,stim,false,2,1306,2,0,2,83476,WMM2,894550,false,false,1153,image-keyboard-response,35
true,9,2,2,2,true,d,false,false,0.0-2.0-0.36-0.324-3.324,1,1,0,68,false,stim,false,2,1227,2,1,0,83476,WMM2,897311,false,true,1156,image-keyboard-response,36
true,10,1,4,1,true,z,false,true,0.0-2.0-0.36-0.325-3.325,1,1,0,90,true,stim,false,1,429,2,0,2,83476,WMM2,899274,false,false,1159,image-keyboard-response,1
true,10,2,4,2,true,d,false,false,0.0-2.0-0.36-0.326-3.326,1,1,0,68,false,stim,false,2,1259,2,1,0,83476,WMM2,902063,false,true,1162,image-keyboard-response,2
true,10,1,4,2,false,d,true,true,0.0-2.0-0.36-0.327-3.327,1,1,0,90,false,stim,false,2,496,2,1,0,83476,WMM2,904100,false,true,1165,image-keyboard-response,3
true,10,1,4,1,true,z,false,true,0.0-2.0-0.36-0.328-3.328,1,1,0,90,false,stim,false,1,526,2,1,1,83476,WMM2,906148,false,false,1168,image-keyboard-response,4
true,10,1,4,1,true,z,false,true,0.0-2.0-0.36-0.329-3.329,1,1,0,90,false,stim,false,1,281,2,0,2,83476,WMM2,907965,false,false,1171,image-keyboard-response,5
true,10,1,4,1,true,z,false,true,0.0-2.0-0.36-0.330-3.330,1,1,0,90,false,stim,false,1,390,2,1,1,83476,WMM2,909895,false,false,1174,image-keyboard-response,6
true,10,1,4,1,true,z,false,true,0.0-2.0-0.36-0.331-3.331,1,1,0,90,false,stim,false,1,293,2,0,2,83476,WMM2,911718,false,false,1177,image-keyboard-response,7
true,10,1,4,1,true,z,false,true,0.0-2.0-0.36-0.332-3.332,1,1,0,90,false,stim,false,1,420,2,1,1,83476,WMM2,913666,false,false,1180,image-keyboard-response,8
true,10,1,4,2,false,d,true,false,0.0-2.0-0.37-0.333-3.333,1,1,0,90,false,stim,false,2,295,2,1,0,83476,WMM2,915500,false,false,1183,image-keyboard-response,9
true,10,1,4,1,true,z,false,false,0.0-2.0-0.37-0.334-3.334,1,1,0,90,false,stim,false,1,190,2,0,2,83476,WMM2,917224,false,true,1186,image-keyboard-response,10
true,10,1,4,1,true,z,false,false,0.0-2.0-0.37-0.335-3.335,1,1,0,90,false,stim,false,1,356,2,1,1,83476,WMM2,919110,false,true,1189,image-keyboard-response,11
true,10,1,4,1,true,z,false,false,0.0-2.0-0.37-0.336-3.336,1,1,0,90,false,stim,false,1,244,2,1,1,83476,WMM2,920890,false,true,1192,image-keyboard-response,12
true,10,0,4,1,false,z,true,false,0.0-2.0-0.37-0.337-3.337,1,1,0,81,false,stim,false,1,115,2,1,1,83476,WMM2,922538,false,false,1195,image-keyboard-response,13
true,10,2,4,1,false,z,true,false,0.0-2.0-0.37-0.338-3.338,1,1,0,68,false,stim,false,1,341,2,0,2,83476,WMM2,924406,false,false,1198,image-keyboard-response,14
true,10,2,4,2,true,d,false,true,0.0-2.0-0.37-0.339-3.339,1,1,0,68,false,stim,false,2,181,2,1,0,83476,WMM2,926135,false,false,1201,image-keyboard-response,15
true,10,1,4,1,true,z,false,true,0.0-2.0-0.37-0.340-3.340,1,1,0,90,false,stim,false,1,987,2,0,2,83476,WMM2,928652,false,false,1204,image-keyboard-response,16
true,10,2,4,2,true,d,false,false,0.0-2.0-0.37-0.341-3.341,1,1,0,68,false,stim,false,2,658,2,1,0,83476,WMM2,930844,false,true,1207,image-keyboard-response,17
true,10,0,4,1,false,z,true,true,0.0-2.0-0.38-0.342-3.342,1,1,0,81,false,stim,false,1,1134,2,0,2,83476,WMM2,933519,false,true,1210,image-keyboard-response,18
true,10,1,4,1,true,z,false,false,0.0-2.0-0.38-0.343-3.343,1,1,0,90,false,stim,false,1,890,2,1,1,83476,WMM2,935935,false,true,1213,image-keyboard-response,19
true,10,0,4,1,false,z,true,false,0.0-2.0-0.38-0.344-3.344,1,1,0,81,false,stim,false,1,1176,2,0,2,83476,WMM2,938641,false,false,1216,image-keyboard-response,20
true,10,2,4,2,true,d,false,true,0.0-2.0-0.38-0.345-3.345,1,1,0,68,false,stim,false,2,588,2,1,0,83476,WMM2,940772,false,false,1219,image-keyboard-response,21
true,10,0,4,1,false,z,true,false,0.0-2.0-0.38-0.346-3.346,1,1,0,81,false,stim,false,1,1242,2,1,1,83476,WMM2,943547,false,false,1222,image-keyboard-response,22
true,10,2,4,2,true,d,false,true,0.0-2.0-0.38-0.347-3.347,1,1,0,68,false,stim,false,2,382,2,1,0,83476,WMM2,945465,false,false,1225,image-keyboard-response,23
true,10,1,4,1,true,z,false,true,0.0-2.0-0.38-0.348-3.348,1,1,0,90,false,stim,false,1,733,2,1,1,83476,WMM2,947737,false,false,1228,image-keyboard-response,24
true,10,2,4,2,true,d,false,true,0.0-2.0-0.38-0.349-3.349,1,1,0,68,false,stim,false,2,704,2,1,0,83476,WMM2,949968,false,false,1231,image-keyboard-response,25
true,10,1,4,1,true,z,false,true,0.0-2.0-0.38-0.350-3.350,1,1,0,90,false,stim,false,1,578,2,0,2,83476,WMM2,952082,false,false,1234,image-keyboard-response,26
true,10,1,4,1,true,z,false,true,0.0-2.0-0.39-0.351-3.351,1,1,0,90,false,stim,false,1,877,2,1,1,83476,WMM2,954502,false,false,1237,image-keyboard-response,27
true,10,1,4,1,true,z,false,true,0.0-2.0-0.39-0.352-3.352,1,1,0,90,false,stim,false,1,1661,2,0,2,83476,WMM2,957706,false,false,1240,image-keyboard-response,28
true,10,1,4,1,true,z,false,true,0.0-2.0-0.39-0.353-3.353,1,1,0,90,false,stim,false,1,569,2,1,1,83476,WMM2,959814,false,false,1243,image-keyboard-response,29
true,10,1,4,1,true,z,false,true,0.0-2.0-0.39-0.354-3.354,1,1,0,90,false,stim,false,1,629,2,0,2,83476,WMM2,961975,false,false,1246,image-keyboard-response,30
true,10,1,4,1,true,z,false,true,0.0-2.0-0.39-0.355-3.355,1,1,0,90,false,stim,false,1,354,2,0,2,83476,WMM2,963859,false,false,1249,image-keyboard-response,31
true,10,2,4,2,true,d,false,true,0.0-2.0-0.39-0.356-3.356,1,1,0,68,false,stim,false,2,700,2,0,0,83476,WMM2,966086,false,false,1252,image-keyboard-response,32
true,10,1,4,1,true,z,false,true,0.0-2.0-0.39-0.357-3.357,1,1,0,90,false,stim,false,1,697,2,1,1,83476,WMM2,968323,false,false,1255,image-keyboard-response,33
true,10,2,4,2,true,d,false,true,0.0-2.0-0.39-0.358-3.358,1,1,0,68,false,stim,false,2,718,2,0,0,83476,WMM2,970573,false,false,1258,image-keyboard-response,34
true,10,2,4,2,true,d,false,true,0.0-2.0-0.39-0.359-3.359,1,1,0,68,false,stim,false,2,402,2,0,0,83476,WMM2,972517,false,false,1261,image-keyboard-response,35
true,10,1,4,1,true,z,false,true,0.0-2.0-0.40-0.360-3.360,1,1,0,90,false,stim,false,1,659,2,1,1,83476,WMM2,974705,false,false,1264,image-keyboard-response,36
true,10,2,4,2,true,d,false,true,0.0-2.0-0.40-0.361-3.361,1,1,0,68,false,stim,false,2,1428,2,0,0,83476,WMM2,977673,false,false,1267,image-keyboard-response,37
true,10,1,4,1,true,z,false,true,0.0-2.0-0.40-0.362-3.362,1,1,0,90,false,stim,false,1,1393,2,0,2,83476,WMM2,980598,false,false,1270,image-keyboard-response,38
true,11,1,1,1,true,z,false,true,0.0-2.0-0.40-0.363-3.363,0,1,0,90,true,stim,false,1,1787,2,1,1,83476,WMM2,983901,false,false,1273,image-keyboard-response,1
true,11,1,1,0,false,q,false,false,0.0-2.0-0.40-0.364-3.364,0,1,0,90,false,stim,true,1,978,2,0,2,83476,WMM2,986412,false,false,1276,image-keyboard-response,2
true,11,2,1,0,false,q,false,false,0.0-2.0-0.40-0.365-3.365,0,1,0,68,false,stim,true,2,626,2,0,0,83476,WMM2,988559,false,false,1279,image-keyboard-response,3
true,11,1,1,1,true,z,false,true,0.0-2.0-0.40-0.366-3.366,0,1,0,90,false,stim,false,1,656,2,1,1,83476,WMM2,990750,false,false,1282,image-keyboard-response,4
true,11,2,1,0,false,q,true,false,0.0-2.0-0.40-0.367-3.367,0,1,0,68,false,stim,false,1,683,2,0,2,83476,WMM2,992978,false,false,1285,image-keyboard-response,5
true,11,2,1,0,false,q,false,false,0.0-2.0-0.40-0.368-3.368,0,1,0,68,false,stim,true,2,1408,2,0,0,83476,WMM2,995922,false,false,1288,image-keyboard-response,6
true,11,0,1,0,true,q,false,true,0.0-2.0-0.41-0.369-3.369,0,1,0,81,false,stim,false,1,1530,2,0,2,83476,WMM2,998986,false,false,1291,image-keyboard-response,7
true,11,2,1,0,false,q,false,false,0.0-2.0-0.41-0.370-3.370,0,1,0,68,false,stim,true,2,1186,2,0,0,83476,WMM2,1001702,false,false,1294,image-keyboard-response,8
true,11,0,1,0,true,q,false,true,0.0-2.0-0.41-0.371-3.371,0,1,0,81,false,stim,false,1,323,2,0,2,83476,WMM2,1003558,false,false,1297,image-keyboard-response,9
true,11,1,1,1,true,z,false,true,0.0-2.0-0.41-0.372-3.372,0,1,0,90,false,stim,false,1,603,2,1,1,83476,WMM2,1005676,false,false,1300,image-keyboard-response,10
true,11,1,1,1,true,z,false,true,0.0-2.0-0.41-0.373-3.373,0,1,0,90,false,stim,false,1,563,2,1,1,83476,WMM2,1007789,false,false,1303,image-keyboard-response,11
true,11,0,1,0,true,q,false,true,0.0-2.0-0.41-0.374-3.374,0,1,0,81,false,stim,false,1,1094,2,0,2,83476,WMM2,1010420,false,false,1306,image-keyboard-response,12
true,11,0,1,0,true,q,false,true,0.0-2.0-0.41-0.375-3.375,0,1,0,81,false,stim,false,2,776,2,0,0,83476,WMM2,1012721,false,false,1309,image-keyboard-response,13
true,11,0,1,0,true,q,false,true,0.0-2.0-0.41-0.376-3.376,0,1,0,81,false,stim,false,2,423,2,0,0,83476,WMM2,1014668,false,false,1312,image-keyboard-response,14
true,11,1,1,1,true,z,false,true,0.0-2.0-0.41-0.377-3.377,0,1,0,90,false,stim,false,1,855,2,1,1,83476,WMM2,1017060,false,false,1315,image-keyboard-response,15
true,11,0,1,0,true,q,false,true,0.0-2.0-0.42-0.378-3.378,0,1,0,81,false,stim,false,1,656,2,0,2,83476,WMM2,1019242,false,false,1318,image-keyboard-response,16
true,11,0,1,0,true,q,false,false,0.0-2.0-0.42-0.379-3.379,0,1,0,81,false,stim,false,2,859,2,0,0,83476,WMM2,1021623,false,true,1321,image-keyboard-response,17
true,11,0,1,0,true,q,false,true,0.0-2.0-0.42-0.380-3.380,0,1,0,81,false,stim,false,1,631,2,0,2,83476,WMM2,1023795,false,false,1324,image-keyboard-response,18
true,11,1,1,0,false,q,true,false,0.0-2.0-0.42-0.381-3.381,0,1,0,90,false,stim,false,2,1106,2,0,0,83476,WMM2,1026431,false,false,1327,image-keyboard-response,19
true,11,0,1,0,true,q,false,true,0.0-2.0-0.42-0.382-3.382,0,1,0,81,false,stim,false,2,524,2,0,0,83476,WMM2,1028489,false,false,1330,image-keyboard-response,20
true,11,0,1,1,false,z,true,false,0.0-2.0-0.42-0.383-3.383,0,1,0,81,false,stim,false,1,556,2,1,1,83476,WMM2,1030581,false,false,1333,image-keyboard-response,21
true,11,1,1,1,true,z,false,true,0.0-2.0-0.42-0.384-3.384,0,1,0,90,false,stim,false,1,473,2,1,1,83476,WMM2,1032599,false,false,1336,image-keyboard-response,22
true,11,1,1,1,true,z,false,true,0.0-2.0-0.42-0.385-3.385,0,1,0,90,false,stim,false,1,377,2,1,1,83476,WMM2,1034522,false,false,1339,image-keyboard-response,23
true,11,0,1,0,true,q,false,true,0.0-2.0-0.42-0.386-3.386,0,1,0,81,false,stim,false,1,649,2,0,2,83476,WMM2,1036714,false,false,1342,image-keyboard-response,24
true,11,1,1,1,true,z,false,true,0.0-2.0-0.43-0.387-3.387,0,1,0,90,false,stim,false,1,891,2,1,1,83476,WMM2,1039126,false,false,1345,image-keyboard-response,25
true,11,0,1,0,true,q,false,true,0.0-2.0-0.43-0.388-3.388,0,1,0,81,false,stim,false,1,1315,2,0,2,83476,WMM2,1041970,false,false,1348,image-keyboard-response,26
true,11,1,1,1,true,z,false,true,0.0-2.0-0.43-0.389-3.389,0,1,0,90,false,stim,false,1,936,2,1,1,83476,WMM2,1044450,false,false,1351,image-keyboard-response,27
true,11,0,1,0,true,q,false,true,0.0-2.0-0.43-0.390-3.390,0,1,0,81,false,stim,false,1,481,2,0,2,83476,WMM2,1046457,false,false,1354,image-keyboard-response,28
true,11,0,1,0,true,q,false,true,0.0-2.0-0.43-0.391-3.391,0,1,0,81,false,stim,false,2,1203,2,0,0,83476,WMM2,1049197,false,false,1357,image-keyboard-response,29
true,11,0,1,0,true,q,false,true,0.0-2.0-0.43-0.392-3.392,0,1,0,81,false,stim,false,2,326,2,1,0,83476,WMM2,1051061,false,false,1360,image-keyboard-response,30
true,11,0,1,0,true,q,false,true,0.0-2.0-0.43-0.393-3.393,0,1,0,81,false,stim,false,1,728,2,0,2,83476,WMM2,1053323,false,false,1363,image-keyboard-response,31
true,11,1,1,1,true,z,false,true,0.0-2.0-0.43-0.394-3.394,0,1,0,90,false,stim,false,1,729,2,0,1,83476,WMM2,1055585,false,false,1366,image-keyboard-response,32
true,11,0,1,0,true,q,false,true,0.0-2.0-0.43-0.395-3.395,0,1,0,81,false,stim,false,2,1972,2,1,0,83476,WMM2,1059087,false,false,1369,image-keyboard-response,33
true,11,0,1,0,true,q,false,true,0.0-2.0-0.44-0.396-3.396,0,1,0,81,false,stim,false,1,1341,2,0,2,83476,WMM2,1061956,false,false,1372,image-keyboard-response,34
true,11,1,1,1,true,z,false,true,0.0-2.0-0.44-0.397-3.397,0,1,0,90,false,stim,false,1,957,2,0,1,83476,WMM2,1064452,false,false,1375,image-keyboard-response,35
true,11,1,1,1,true,z,false,true,0.0-2.0-0.44-0.398-3.398,0,1,0,90,false,stim,false,1,369,2,0,1,83476,WMM2,1066365,false,false,1378,image-keyboard-response,36
true,11,0,1,0,true,q,false,true,0.0-2.0-0.44-0.399-3.399,0,1,0,81,false,stim,false,2,587,2,1,0,83476,WMM2,1068483,false,false,1381,image-keyboard-response,37
true,11,0,1,0,true,q,false,false,0.0-2.0-0.44-0.400-3.400,0,1,0,81,false,stim,false,2,335,2,1,0,83476,WMM2,1070350,false,true,1384,image-keyboard-response,38
true,11,1,1,1,true,z,false,true,0.0-2.0-0.44-0.401-3.401,0,1,0,90,false,stim,false,1,512,2,0,1,83476,WMM2,1072382,false,false,1387,image-keyboard-response,39
true,12,0,1,0,true,q,false,true,0.0-2.0-0.44-0.402-3.402,1,0,0,81,true,stim,false,0,586,2,1,0,83476,WMM2,1074502,false,false,1390,image-keyboard-response,1
true,12,0,1,1,false,z,false,false,0.0-2.0-0.44-0.403-3.403,1,0,0,81,false,stim,true,0,2322,2,0,2,83476,WMM2,1078356,false,false,1393,image-keyboard-response,2
true,12,0,1,1,false,z,false,false,0.0-2.0-0.44-0.404-3.404,1,0,0,81,false,stim,true,0,523,2,0,2,83476,WMM2,1080419,false,false,1396,image-keyboard-response,3
true,12,1,1,2,false,d,false,false,0.0-2.0-0.45-0.405-3.405,1,0,0,90,false,stim,true,1,1497,2,0,1,83476,WMM2,1083453,false,false,1399,image-keyboard-response,4
true,12,0,1,0,true,q,false,true,0.0-2.0-0.45-0.406-3.406,1,0,0,81,false,stim,false,0,710,2,1,0,83476,WMM2,1085695,false,false,1402,image-keyboard-response,5
true,12,0,1,0,true,q,false,true,0.0-2.0-0.45-0.407-3.407,1,0,0,81,false,stim,false,0,767,2,1,0,83476,WMM2,1087992,false,false,1405,image-keyboard-response,6
true,12,2,1,1,false,z,true,true,0.0-2.0-0.45-0.408-3.408,1,0,0,68,false,stim,false,0,1695,2,0,2,83476,WMM2,1091220,false,true,1408,image-keyboard-response,7
true,12,0,1,0,true,q,false,true,0.0-2.0-0.45-0.409-3.409,1,0,0,81,false,stim,false,0,925,2,1,0,83476,WMM2,1093672,false,false,1411,image-keyboard-response,8
true,12,1,1,2,false,d,false,false,0.0-2.0-0.45-0.410-3.410,1,0,0,90,false,stim,true,1,843,2,0,1,83476,WMM2,1096048,false,false,1414,image-keyboard-response,9
true,12,2,1,1,false,z,true,false,0.0-2.0-0.45-0.411-3.411,1,0,0,68,false,stim,false,0,499,2,0,2,83476,WMM2,1098085,false,false,1417,image-keyboard-response,10
true,12,2,1,1,false,z,true,false,0.0-2.0-0.45-0.412-3.412,1,0,0,68,false,stim,false,0,607,2,0,2,83476,WMM2,1100232,false,false,1420,image-keyboard-response,11
true,12,2,1,2,true,d,false,true,0.0-2.0-0.45-0.413-3.413,1,0,0,68,false,stim,false,1,795,2,0,1,83476,WMM2,1102560,false,false,1423,image-keyboard-response,12
true,12,2,1,2,true,d,false,true,0.0-2.0-0.46-0.414-3.414,1,0,0,68,false,stim,false,1,488,2,0,1,83476,WMM2,1104572,false,false,1426,image-keyboard-response,13
true,12,0,1,0,true,q,false,true,0.0-2.0-0.46-0.415-3.415,1,0,0,81,false,stim,false,0,564,2,1,0,83476,WMM2,1106669,false,false,1429,image-keyboard-response,14
true,12,0,1,0,true,q,false,true,0.0-2.0-0.46-0.416-3.416,1,0,0,81,false,stim,false,0,375,2,1,0,83476,WMM2,1108580,false,false,1432,image-keyboard-response,15
true,12,0,1,0,true,q,false,true,0.0-2.0-0.46-0.417-3.417,1,0,0,81,false,stim,false,0,319,2,1,0,83476,WMM2,1110425,false,false,1435,image-keyboard-response,16
true,12,0,1,1,false,z,false,false,0.0-2.0-0.46-0.418-3.418,1,0,0,81,false,stim,true,0,559,2,0,2,83476,WMM2,1112523,false,false,1438,image-keyboard-response,17
true,12,2,1,1,false,z,true,false,0.0-2.0-0.46-0.419-3.419,1,0,0,68,false,stim,false,0,460,2,0,2,83476,WMM2,1114526,false,false,1441,image-keyboard-response,18
true,12,2,1,2,true,d,false,true,0.0-2.0-0.46-0.420-3.420,1,0,0,68,false,stim,false,1,549,2,0,1,83476,WMM2,1116613,false,false,1444,image-keyboard-response,19
true,12,1,1,1,true,z,false,true,0.0-2.0-0.46-0.421-3.421,1,0,0,90,false,stim,false,0,686,2,0,2,83476,WMM2,1118840,false,false,1447,image-keyboard-response,20
true,12,2,1,2,true,d,false,true,0.0-2.0-0.46-0.422-3.422,1,0,0,68,false,stim,false,1,1164,2,0,1,83476,WMM2,1121540,false,false,1450,image-keyboard-response,21
true,12,1,1,1,true,z,false,true,0.0-2.0-0.47-0.423-3.423,1,0,0,90,false,stim,false,0,617,2,0,2,83476,WMM2,1123702,false,false,1453,image-keyboard-response,22
true,12,0,1,0,true,q,false,true,0.0-2.0-0.47-0.424-3.424,1,0,0,81,false,stim,false,0,1172,2,1,0,83476,WMM2,1126418,false,false,1456,image-keyboard-response,23
true,12,2,1,2,true,d,false,true,0.0-2.0-0.47-0.425-3.425,1,0,0,68,false,stim,false,1,1507,2,1,1,83476,WMM2,1129452,false,false,1459,image-keyboard-response,24
true,12,2,1,2,true,d,false,true,0.0-2.0-0.47-0.426-3.426,1,0,0,68,false,stim,false,1,425,2,1,1,83476,WMM2,1131409,false,false,1462,image-keyboard-response,25
true,12,0,1,1,false,z,false,false,0.0-2.0-0.47-0.427-3.427,1,0,0,81,false,stim,true,0,1049,2,0,2,83476,WMM2,1133995,false,false,1465,image-keyboard-response,26
true,12,0,1,0,true,q,false,true,0.0-2.0-0.47-0.428-3.428,1,0,0,81,false,stim,false,0,704,2,1,0,83476,WMM2,1136230,false,false,1468,image-keyboard-response,27
true,12,1,1,1,true,z,false,true,0.0-2.0-0.47-0.429-3.429,1,0,0,90,false,stim,false,0,329,2,0,2,83476,WMM2,1138095,false,false,1471,image-keyboard-response,28
true,12,0,1,0,true,q,false,true,0.0-2.0-0.47-0.430-3.430,1,0,0,81,false,stim,false,0,670,2,1,0,83476,WMM2,1140296,false,false,1474,image-keyboard-response,29
true,12,2,1,2,true,d,false,true,0.0-2.0-0.47-0.431-3.431,1,0,0,68,false,stim,false,1,1047,2,1,1,83476,WMM2,1142872,false,false,1477,image-keyboard-response,30
true,12,1,1,1,true,z,false,true,0.0-2.0-0.48-0.432-3.432,1,0,0,90,false,stim,false,0,1670,2,0,2,83476,WMM2,1146075,false,false,1480,image-keyboard-response,31
true,12,0,1,0,true,q,false,true,0.0-2.0-0.48-0.433-3.433,1,0,0,81,false,stim,false,0,608,2,1,0,83476,WMM2,1148212,false,false,1483,image-keyboard-response,32
true,13,2,2,2,true,d,false,true,0.0-2.0-0.48-0.434-3.434,1,1,0,68,true,stim,false,2,937,2,1,1,83476,WMM2,1150682,false,false,1486,image-keyboard-response,1
true,13,0,2,0,true,q,false,true,0.0-2.0-0.48-0.435-3.435,1,1,0,81,false,stim,false,1,1667,2,0,2,83476,WMM2,1153872,false,false,1489,image-keyboard-response,2
true,13,0,2,0,true,q,false,true,0.0-2.0-0.48-0.436-3.436,1,1,0,81,false,stim,false,0,1570,2,1,0,83476,WMM2,1156965,false,false,1492,image-keyboard-response,3
true,13,2,2,2,true,d,false,true,0.0-2.0-0.48-0.437-3.437,1,1,0,68,false,stim,false,2,1250,2,1,1,83476,WMM2,1159745,false,false,1495,image-keyboard-response,4
true,13,2,2,2,true,d,false,true,0.0-2.0-0.48-0.438-3.438,1,1,0,68,false,stim,false,2,628,2,1,1,83476,WMM2,1161903,false,false,1498,image-keyboard-response,5
true,13,1,2,0,false,q,false,false,0.0-2.0-0.48-0.439-3.439,1,1,0,90,false,stim,true,1,788,2,0,2,83476,WMM2,1164230,false,false,1501,image-keyboard-response,6
true,13,0,2,0,true,q,false,true,0.0-2.0-0.48-0.440-3.440,1,1,0,81,false,stim,false,0,711,2,1,0,83476,WMM2,1166465,false,false,1504,image-keyboard-response,7
true,13,2,2,2,true,d,false,true,0.0-2.0-0.49-0.441-3.441,1,1,0,68,false,stim,false,2,892,2,1,1,83476,WMM2,1168886,false,false,1507,image-keyboard-response,8
true,13,2,2,2,true,d,false,true,0.0-2.0-0.49-0.442-3.442,1,1,0,68,false,stim,false,2,470,2,1,1,83476,WMM2,1170894,false,false,1510,image-keyboard-response,9
true,13,0,2,0,true,q,false,true,0.0-2.0-0.49-0.443-3.443,1,1,0,81,false,stim,false,1,516,2,0,2,83476,WMM2,1172941,false,false,1513,image-keyboard-response,10
true,13,0,2,2,false,d,true,false,0.0-2.0-0.49-0.444-3.444,1,1,0,81,false,stim,false,2,499,2,1,1,83476,WMM2,1174965,false,false,1516,image-keyboard-response,11
true,13,0,2,0,true,q,false,true,0.0-2.0-0.49-0.445-3.445,1,1,0,81,false,stim,false,0,1026,2,1,0,83476,WMM2,1177531,false,false,1519,image-keyboard-response,12
true,13,0,2,0,true,q,false,true,0.0-2.0-0.49-0.446-3.446,1,1,0,81,false,stim,false,1,1241,2,0,2,83476,WMM2,1180307,false,false,1522,image-keyboard-response,13
true,13,0,2,0,true,q,false,true,0.0-2.0-0.49-0.447-3.447,1,1,0,81,false,stim,false,0,2181,2,1,0,83476,WMM2,1184027,false,false,1525,image-keyboard-response,14
true,13,0,2,0,true,q,false,true,0.0-2.0-0.49-0.448-3.448,1,1,0,81,false,stim,false,0,474,2,1,0,83476,WMM2,1186041,false,false,1528,image-keyboard-response,15
true,13,0,2,0,true,q,false,true,0.0-2.0-0.49-0.449-3.449,1,1,0,81,false,stim,false,1,1065,2,0,2,83476,WMM2,1188641,false,false,1531,image-keyboard-response,16
false,13,-1,2,0,false,q,true,false,0.0-2.0-0.50-0.450-3.450,1,1,0,,false,stim,false,0,,2,1,0,83476,WMM2,1193193,false,false,1534,image-keyboard-response,17
true,13,0,2,0,true,q,false,true,0.0-2.0-0.50-0.451-3.451,1,1,0,81,false,stim,false,0,566,2,1,0,83476,WMM2,1195302,false,false,1537,image-keyboard-response,18
true,13,0,2,0,true,q,false,true,0.0-2.0-0.50-0.452-3.452,1,1,0,81,false,stim,false,1,2542,2,0,2,83476,WMM2,1199376,false,false,1540,image-keyboard-response,19
true,13,0,2,2,false,d,true,true,0.0-2.0-0.50-0.453-3.453,1,1,0,81,false,stim,false,2,2292,2,1,1,83476,WMM2,1203199,false,true,1543,image-keyboard-response,20
true,13,0,2,2,false,d,true,false,0.0-2.0-0.50-0.454-3.454,1,1,0,81,false,stim,false,2,470,2,1,1,83476,WMM2,1205216,false,false,1546,image-keyboard-response,21
true,13,0,2,0,true,q,false,true,0.0-2.0-0.50-0.455-3.455,1,1,0,81,false,stim,false,0,1200,2,1,0,83476,WMM2,1207945,false,false,1549,image-keyboard-response,22
true,13,0,2,0,true,q,false,true,0.0-2.0-0.50-0.456-3.456,1,1,0,81,false,stim,false,1,2192,2,0,2,83476,WMM2,1211656,false,false,1552,image-keyboard-response,23
true,13,0,2,0,true,q,false,true,0.0-2.0-0.50-0.457-3.457,1,1,0,81,false,stim,false,1,425,2,0,2,83476,WMM2,1213610,false,false,1555,image-keyboard-response,24
true,13,2,2,2,true,d,false,true,0.0-2.0-0.50-0.458-3.458,1,1,0,68,false,stim,false,2,762,2,1,1,83476,WMM2,1215906,false,false,1558,image-keyboard-response,25
true,13,0,2,0,true,q,false,true,0.0-2.0-0.51-0.459-3.459,1,1,0,81,false,stim,false,1,450,2,0,2,83476,WMM2,1217885,false,false,1561,image-keyboard-response,26
true,13,0,2,0,true,q,false,true,0.0-2.0-0.51-0.460-3.460,1,1,0,81,false,stim,false,1,342,2,0,2,83476,WMM2,1219758,false,false,1564,image-keyboard-response,27
true,13,2,2,2,true,d,false,true,0.0-2.0-0.51-0.461-3.461,1,1,0,68,false,stim,false,2,1511,2,1,1,83476,WMM2,1222801,false,false,1567,image-keyboard-response,28
true,13,0,2,0,true,q,false,true,0.0-2.0-0.51-0.462-3.462,1,1,0,81,false,stim,false,0,603,2,1,0,83476,WMM2,1224949,false,false,1570,image-keyboard-response,29
true,13,0,2,0,true,q,false,true,0.0-2.0-0.51-0.463-3.463,1,1,0,81,false,stim,false,0,402,2,1,0,83476,WMM2,1226886,false,false,1573,image-keyboard-response,30
true,13,0,2,0,true,q,false,true,0.0-2.0-0.51-0.464-3.464,1,1,0,81,false,stim,false,0,348,2,1,0,83476,WMM2,1228775,false,false,1576,image-keyboard-response,31
true,13,0,2,0,true,q,false,true,0.0-2.0-0.51-0.465-3.465,1,1,0,81,false,stim,false,1,706,2,0,2,83476,WMM2,1231011,false,false,1579,image-keyboard-response,32
true,13,2,2,2,true,d,false,true,0.0-2.0-0.51-0.466-3.466,1,1,0,68,false,stim,false,2,962,2,1,1,83476,WMM2,1233507,false,false,1582,image-keyboard-response,33
true,13,2,2,2,true,d,false,true,0.0-2.0-0.51-0.467-3.467,1,1,0,68,false,stim,false,2,346,2,1,1,83476,WMM2,1235391,false,false,1585,image-keyboard-response,34
true,13,0,2,0,true,q,false,true,0.0-2.0-0.52-0.468-3.468,1,1,0,81,false,stim,false,1,562,2,0,2,83476,WMM2,1237488,false,false,1588,image-keyboard-response,35
true,13,0,2,0,true,q,false,false,0.0-2.0-0.52-0.469-3.469,1,1,0,81,false,stim,false,0,546,2,1,0,83476,WMM2,1239571,false,true,1591,image-keyboard-response,36
true,13,0,2,0,true,q,false,true,0.0-2.0-0.52-0.470-3.470,1,1,0,81,false,stim,false,1,1126,2,0,2,83476,WMM2,1242230,false,false,1594,image-keyboard-response,37
true,13,0,2,0,true,q,false,true,0.0-2.0-0.52-0.471-3.471,1,1,0,81,false,stim,false,0,751,2,1,0,83476,WMM2,1244517,false,false,1597,image-keyboard-response,38
true,14,2,0,2,true,d,false,true,0.0-2.0-0.52-0.472-3.472,1,1,0,68,true,stim,false,2,1016,2,1,1,83476,WMM2,1264042,false,false,1617,image-keyboard-response,1
true,14,0,0,0,true,q,false,true,0.0-2.0-0.52-0.473-3.473,1,1,0,81,false,stim,false,0,783,2,0,2,83476,WMM2,1266348,false,false,1620,image-keyboard-response,2
true,14,2,0,2,true,d,false,true,0.0-2.0-0.52-0.474-3.474,1,1,0,68,false,stim,false,2,576,2,1,1,83476,WMM2,1268460,false,false,1623,image-keyboard-response,3
true,14,2,0,2,true,d,false,true,0.0-2.0-0.52-0.475-3.475,1,1,0,68,false,stim,false,2,452,2,1,1,83476,WMM2,1270438,false,false,1626,image-keyboard-response,4
true,14,0,0,0,true,q,false,true,0.0-2.0-0.52-0.476-3.476,1,1,0,81,false,stim,false,0,817,2,1,0,83476,WMM2,1272780,false,false,1629,image-keyboard-response,5
true,14,0,0,0,true,q,false,true,0.0-2.0-0.53-0.477-3.477,1,1,0,81,false,stim,false,0,417,2,1,0,83476,WMM2,1274743,false,false,1632,image-keyboard-response,6
true,14,0,0,0,true,q,false,true,0.0-2.0-0.53-0.478-3.478,1,1,0,81,false,stim,false,0,314,2,1,0,83476,WMM2,1276601,false,false,1635,image-keyboard-response,7
true,14,1,0,0,false,q,true,true,0.0-2.0-0.53-0.479-3.479,1,1,0,90,false,stim,false,0,861,2,0,2,83476,WMM2,1278987,false,true,1638,image-keyboard-response,8
true,14,2,0,2,true,d,false,true,0.0-2.0-0.53-0.480-3.480,1,1,0,68,false,stim,false,2,848,2,1,1,83476,WMM2,1281374,false,false,1641,image-keyboard-response,9
true,14,0,0,0,true,q,false,true,0.0-2.0-0.53-0.481-3.481,1,1,0,81,false,stim,false,0,1252,2,1,0,83476,WMM2,1284158,false,false,1644,image-keyboard-response,10
true,14,2,0,2,true,d,false,true,0.0-2.0-0.53-0.482-3.482,1,1,0,68,false,stim,false,2,761,2,1,1,83476,WMM2,1286445,false,false,1647,image-keyboard-response,11
true,14,1,0,0,false,q,true,false,0.0-2.0-0.53-0.483-3.483,1,1,0,90,false,stim,false,0,686,2,0,2,83476,WMM2,1288662,false,false,1650,image-keyboard-response,12
true,14,1,0,0,false,q,true,false,0.0-2.0-0.53-0.484-3.484,1,1,0,90,false,stim,false,0,1306,2,0,2,83476,WMM2,1291501,false,false,1653,image-keyboard-response,13
true,14,2,0,2,true,d,false,true,0.0-2.0-0.53-0.485-3.485,1,1,0,68,false,stim,false,2,488,2,1,1,83476,WMM2,1293514,false,false,1656,image-keyboard-response,14
true,14,0,0,0,true,q,false,true,0.0-2.0-0.54-0.486-3.486,1,1,0,81,false,stim,false,0,596,2,1,0,83476,WMM2,1295641,false,false,1659,image-keyboard-response,15
true,14,2,0,2,true,d,false,true,0.0-2.0-0.54-0.487-3.487,1,1,0,68,false,stim,false,2,553,2,1,1,83476,WMM2,1297718,false,false,1662,image-keyboard-response,16
true,14,0,0,0,true,q,false,true,0.0-2.0-0.54-0.488-3.488,1,1,0,81,false,stim,false,0,915,2,1,0,83476,WMM2,1300161,false,false,1665,image-keyboard-response,17
true,14,2,0,2,true,d,false,false,0.0-2.0-0.54-0.489-3.489,1,1,0,68,false,stim,false,2,527,2,1,1,83476,WMM2,1302213,false,true,1668,image-keyboard-response,18
true,14,0,0,0,true,q,false,true,0.0-2.0-0.54-0.490-3.490,1,1,0,81,false,stim,false,0,1123,2,0,2,83476,WMM2,1304868,false,false,1671,image-keyboard-response,19
true,14,0,0,0,true,q,false,true,0.0-2.0-0.54-0.491-3.491,1,1,0,81,false,stim,false,0,331,2,0,2,83476,WMM2,1306736,false,false,1674,image-keyboard-response,20
true,14,2,0,2,true,d,false,true,0.0-2.0-0.54-0.492-3.492,1,1,0,68,false,stim,false,2,624,2,1,1,83476,WMM2,1308889,false,false,1677,image-keyboard-response,21
true,14,0,0,0,true,q,false,true,0.0-2.0-0.54-0.493-3.493,1,1,0,81,false,stim,false,0,1307,2,1,0,83476,WMM2,1311734,false,false,1680,image-keyboard-response,22
true,14,2,0,0,false,q,true,false,0.0-2.0-0.54-0.494-3.494,1,1,0,68,false,stim,false,0,1397,2,0,2,83476,WMM2,1314663,false,false,1683,image-keyboard-response,23
true,14,2,0,0,false,q,true,false,0.0-2.0-0.55-0.495-3.495,1,1,0,68,false,stim,false,0,530,2,0,2,83476,WMM2,1316735,false,false,1686,image-keyboard-response,24
true,14,0,0,0,true,q,false,true,0.0-2.0-0.55-0.496-3.496,1,1,0,81,false,stim,false,0,671,2,0,2,83476,WMM2,1318947,false,false,1689,image-keyboard-response,25
true,14,0,0,0,true,q,false,true,0.0-2.0-0.55-0.497-3.497,1,1,0,81,false,stim,false,0,604,2,1,0,83476,WMM2,1321079,false,false,1692,image-keyboard-response,26
true,14,0,0,0,true,q,false,true,0.0-2.0-0.55-0.498-3.498,1,1,0,81,false,stim,false,0,321,2,1,0,83476,WMM2,1322937,false,false,1695,image-keyboard-response,27
true,14,0,0,0,true,q,false,true,0.0-2.0-0.55-0.499-3.499,1,1,0,81,false,stim,false,0,1028,2,0,2,83476,WMM2,1325504,false,false,1698,image-keyboard-response,28
true,14,2,0,2,true,d,false,true,0.0-2.0-0.55-0.500-3.500,1,1,0,68,false,stim,false,2,707,2,1,1,83476,WMM2,1327751,false,false,1701,image-keyboard-response,29
true,14,0,0,0,true,q,false,true,0.0-2.0-0.55-0.501-3.501,1,1,0,81,false,stim,false,0,746,2,1,0,83476,WMM2,1330021,false,false,1704,image-keyboard-response,30
true,15,2,2,2,true,d,false,true,0.0-2.0-0.55-0.502-3.502,1,1,0,68,true,stim,false,2,623,2,1,1,83476,WMM2,1332178,false,false,1707,image-keyboard-response,1
true,15,2,2,2,true,d,false,true,0.0-2.0-0.55-0.503-3.503,1,1,0,68,false,stim,false,2,410,2,1,1,83476,WMM2,1334126,false,false,1710,image-keyboard-response,2
true,15,0,2,0,true,q,false,true,0.0-2.0-0.56-0.504-3.504,1,1,0,81,false,stim,false,0,629,2,1,0,83476,WMM2,1336284,false,false,1713,image-keyboard-response,3
true,15,2,2,2,true,d,false,true,0.0-2.0-0.56-0.505-3.505,1,1,0,68,false,stim,false,2,619,2,1,1,83476,WMM2,1338415,false,false,1716,image-keyboard-response,4
true,15,0,2,2,false,d,false,false,0.0-2.0-0.56-0.506-3.506,1,1,0,81,false,stim,true,0,1569,2,0,2,83476,WMM2,1341524,false,false,1719,image-keyboard-response,5
true,15,2,2,2,true,d,false,true,0.0-2.0-0.56-0.507-3.507,1,1,0,68,false,stim,false,0,1158,2,0,2,83476,WMM2,1344214,false,false,1722,image-keyboard-response,6
true,15,2,2,2,true,d,false,false,0.0-2.0-0.56-0.508-3.508,1,1,0,68,false,stim,false,2,486,2,1,1,83476,WMM2,1346242,false,true,1725,image-keyboard-response,7
true,15,2,2,2,true,d,false,true,0.0-2.0-0.56-0.509-3.509,1,1,0,68,false,stim,false,0,325,2,0,2,83476,WMM2,1348100,false,false,1728,image-keyboard-response,8
true,15,0,2,0,true,q,false,true,0.0-2.0-0.56-0.510-3.510,1,1,0,81,false,stim,false,0,1155,2,1,0,83476,WMM2,1350790,false,false,1731,image-keyboard-response,9
true,15,0,2,0,true,q,false,false,0.0-2.0-0.56-0.511-3.511,1,1,0,81,false,stim,false,0,391,2,1,0,83476,WMM2,1352707,false,true,1734,image-keyboard-response,10
true,15,2,2,2,true,d,false,false,0.0-2.0-0.56-0.512-3.512,1,1,0,68,false,stim,false,2,572,2,1,1,83476,WMM2,1354819,false,true,1737,image-keyboard-response,11
true,15,0,2,0,true,q,false,true,0.0-2.0-0.57-0.513-3.513,1,1,0,81,false,stim,false,0,969,2,1,0,83476,WMM2,1357312,false,false,1740,image-keyboard-response,12
true,15,2,2,2,true,d,false,false,0.0-2.0-0.57-0.514-3.514,1,1,0,68,false,stim,false,2,822,2,1,1,83476,WMM2,1359668,false,true,1743,image-keyboard-response,13
true,15,1,2,2,false,d,true,false,0.0-2.0-0.57-0.515-3.515,1,1,0,90,false,stim,false,2,864,2,1,1,83476,WMM2,1362069,false,false,1746,image-keyboard-response,14
true,15,0,2,2,false,d,false,false,0.0-2.0-0.57-0.516-3.516,1,1,0,81,false,stim,true,0,611,2,0,2,83476,WMM2,1364216,false,false,1749,image-keyboard-response,15
true,15,0,2,0,true,q,false,true,0.0-2.0-0.57-0.517-3.517,1,1,0,81,false,stim,false,0,574,2,1,0,83476,WMM2,1366319,false,false,1752,image-keyboard-response,16
true,15,2,2,2,true,d,false,false,0.0-2.0-0.57-0.518-3.518,1,1,0,68,false,stim,false,0,670,2,0,2,83476,WMM2,1368516,false,true,1755,image-keyboard-response,17
true,15,0,2,2,false,d,true,false,0.0-2.0-0.57-0.519-3.519,1,1,0,81,false,stim,false,2,826,2,1,1,83476,WMM2,1370873,false,false,1758,image-keyboard-response,18
true,15,0,2,0,true,q,false,true,0.0-2.0-0.57-0.520-3.520,1,1,0,81,false,stim,false,0,639,2,1,0,83476,WMM2,1373055,false,false,1761,image-keyboard-response,19
true,15,1,2,2,false,d,true,false,0.0-2.0-0.57-0.521-3.521,1,1,0,90,false,stim,false,0,586,2,0,2,83476,WMM2,1375182,false,false,1764,image-keyboard-response,20
true,15,0,2,2,false,d,true,false,0.0-2.0-0.58-0.522-3.522,1,1,0,81,false,stim,false,2,703,2,1,1,83476,WMM2,1377419,false,false,1767,image-keyboard-response,21
true,15,2,2,2,true,d,false,true,0.0-2.0-0.58-0.523-3.523,1,1,0,68,false,stim,false,0,675,2,0,2,83476,WMM2,1379630,false,false,1770,image-keyboard-response,22
true,15,0,2,0,true,q,false,false,0.0-2.0-0.58-0.524-3.524,1,1,0,81,false,stim,false,0,727,2,1,0,83476,WMM2,1381902,false,true,1773,image-keyboard-response,23
true,15,2,2,2,true,d,false,true,0.0-2.0-0.58-0.525-3.525,1,1,0,68,false,stim,false,0,385,2,0,2,83476,WMM2,1383820,false,false,1776,image-keyboard-response,24
true,15,2,2,2,true,d,false,true,0.0-2.0-0.58-0.526-3.526,1,1,0,68,false,stim,false,2,791,2,1,1,83476,WMM2,1386146,false,false,1779,image-keyboard-response,25
true,15,2,2,2,true,d,false,true,0.0-2.0-0.58-0.527-3.527,1,1,0,68,false,stim,false,2,394,2,1,1,83476,WMM2,1388070,false,false,1782,image-keyboard-response,26
true,15,1,2,0,false,q,true,false,0.0-2.0-0.58-0.528-3.528,1,1,0,90,false,stim,false,0,1049,2,0,0,83476,WMM2,1390666,false,false,1785,image-keyboard-response,27
true,15,0,2,0,true,q,false,true,0.0-2.0-0.58-0.529-3.529,1,1,0,81,false,stim,false,0,527,2,0,0,83476,WMM2,1392717,false,false,1788,image-keyboard-response,28
true,15,2,2,2,true,d,false,true,0.0-2.0-0.58-0.530-3.530,1,1,0,68,false,stim,false,0,729,2,1,2,83476,WMM2,1394985,false,false,1791,image-keyboard-response,29
true,15,0,2,0,true,q,false,true,0.0-2.0-0.59-0.531-3.531,1,1,0,81,false,stim,false,0,665,2,0,0,83476,WMM2,1397181,false,false,1794,image-keyboard-response,30
true,15,0,2,0,true,q,false,true,0.0-2.0-0.59-0.532-3.532,1,1,0,81,false,stim,false,0,538,2,0,0,83476,WMM2,1399254,false,false,1797,image-keyboard-response,31
true,15,2,2,2,true,d,false,true,0.0-2.0-0.59-0.533-3.533,1,1,0,68,false,stim,false,0,885,2,1,2,83476,WMM2,1401670,false,false,1800,image-keyboard-response,32
true,15,2,2,2,true,d,false,false,0.0-2.0-0.59-0.534-3.534,1,1,0,68,false,stim,false,2,372,2,0,1,83476,WMM2,1403577,false,true,1803,image-keyboard-response,33
true,15,0,2,0,true,q,false,true,0.0-2.0-0.59-0.535-3.535,1,1,0,81,false,stim,false,0,803,2,0,0,83476,WMM2,1405909,false,false,1806,image-keyboard-response,34
true,15,2,2,2,true,d,false,true,0.0-2.0-0.59-0.536-3.536,1,1,0,68,false,stim,false,0,1572,2,1,2,83476,WMM2,1409018,false,false,1809,image-keyboard-response,35
true,15,2,2,2,true,d,false,true,0.0-2.0-0.59-0.537-3.537,1,1,0,68,false,stim,false,0,410,2,1,2,83476,WMM2,1410975,false,false,1812,image-keyboard-response,36
true,16,2,1,0,false,q,false,false,0.0-2.0-0.59-0.538-3.538,0,0,1,68,true,stim,true,2,1276,2,0,1,83476,WMM2,1413781,false,false,1815,image-keyboard-response,1
true,16,2,1,0,false,q,false,false,0.0-2.0-0.59-0.539-3.539,0,0,1,68,false,stim,true,2,593,2,0,1,83476,WMM2,1415898,false,false,1818,image-keyboard-response,2
true,16,0,1,2,false,d,true,false,0.0-2.0-0.60-0.540-3.540,0,0,1,81,false,stim,false,2,580,2,1,2,83476,WMM2,1418005,false,false,1821,image-keyboard-response,3
true,16,1,1,0,false,q,true,false,0.0-2.0-0.60-0.541-3.541,0,0,1,90,false,stim,false,2,681,2,0,1,83476,WMM2,1420227,false,false,1824,image-keyboard-response,4
true,16,2,1,0,false,q,false,false,0.0-2.0-0.60-0.542-3.542,0,0,1,68,false,stim,true,2,823,2,0,1,83476,WMM2,1422589,false,false,1827,image-keyboard-response,5
true,16,0,1,1,false,z,false,false,0.0-2.0-0.60-0.543-3.543,0,0,1,81,false,stim,true,0,809,2,0,0,83476,WMM2,1424936,false,false,1830,image-keyboard-response,6
true,16,0,1,2,false,d,true,false,0.0-2.0-0.60-0.544-3.544,0,0,1,81,false,stim,false,2,523,2,1,2,83476,WMM2,1426988,false,false,1833,image-keyboard-response,7
true,16,1,1,1,true,z,false,true,0.0-2.0-0.60-0.545-3.545,0,0,1,90,false,stim,false,0,638,2,0,0,83476,WMM2,1429165,false,false,1836,image-keyboard-response,8
true,16,1,1,2,false,d,true,false,0.0-2.0-0.60-0.546-3.546,0,0,1,90,false,stim,false,2,795,2,1,2,83476,WMM2,1431501,false,false,1839,image-keyboard-response,9
true,16,0,1,0,true,q,false,false,0.0-2.0-0.60-0.547-3.547,0,0,1,81,false,stim,false,2,832,2,0,1,83476,WMM2,1433857,false,true,1842,image-keyboard-response,10
true,16,1,1,1,true,z,false,false,0.0-2.0-0.60-0.548-3.548,0,0,1,90,false,stim,false,0,379,2,0,0,83476,WMM2,1435766,false,true,1845,image-keyboard-response,11
true,16,2,1,0,false,q,false,false,0.0-2.0-0.61-0.549-3.549,0,0,1,68,false,stim,true,2,921,2,0,1,83476,WMM2,1438226,false,false,1848,image-keyboard-response,12
true,16,2,1,2,true,d,false,true,0.0-2.0-0.61-0.550-3.550,0,0,1,68,false,stim,false,2,602,2,1,2,83476,WMM2,1440363,false,false,1851,image-keyboard-response,13
true,16,1,1,1,true,z,false,true,0.0-2.0-0.61-0.551-3.551,0,0,1,90,false,stim,false,0,1108,2,0,0,83476,WMM2,1443015,false,false,1854,image-keyboard-response,14
true,16,0,1,0,true,q,false,true,0.0-2.0-0.61-0.552-3.552,0,0,1,81,false,stim,false,2,940,2,0,1,83476,WMM2,1445485,false,false,1857,image-keyboard-response,15
true,16,0,1,0,true,q,false,true,0.0-2.0-0.61-0.553-3.553,0,0,1,81,false,stim,false,2,386,2,0,1,83476,WMM2,1447413,false,false,1860,image-keyboard-response,16
true,16,2,1,2,true,d,false,true,0.0-2.0-0.61-0.554-3.554,0,0,1,68,false,stim,false,2,660,2,1,2,83476,WMM2,1449605,false,false,1863,image-keyboard-response,17
true,16,1,1,1,true,z,false,true,0.0-2.0-0.61-0.555-3.555,0,0,1,90,false,stim,false,0,686,2,0,0,83476,WMM2,1451832,false,false,1866,image-keyboard-response,18
true,16,2,1,2,true,d,false,true,0.0-2.0-0.61-0.556-3.556,0,0,1,68,false,stim,false,2,863,2,1,2,83476,WMM2,1454229,false,false,1869,image-keyboard-response,19
true,16,1,1,1,true,z,false,true,0.0-2.0-0.61-0.557-3.557,0,0,1,90,false,stim,false,0,1870,2,0,0,83476,WMM2,1457635,false,false,1872,image-keyboard-response,20
true,16,2,1,2,true,d,false,true,0.0-2.0-0.62-0.558-3.558,0,0,1,68,false,stim,false,2,1659,2,1,2,83476,WMM2,1460824,false,false,1875,image-keyboard-response,21
true,16,1,1,1,true,z,false,true,0.0-2.0-0.62-0.559-3.559,0,0,1,90,false,stim,false,0,1114,2,1,0,83476,WMM2,1463480,false,false,1878,image-keyboard-response,22
true,16,2,1,2,true,d,false,true,0.0-2.0-0.62-0.560-3.560,0,0,1,68,false,stim,false,2,843,2,1,2,83476,WMM2,1465846,false,false,1881,image-keyboard-response,23
true,16,0,1,0,true,q,false,true,0.0-2.0-0.62-0.561-3.561,0,0,1,81,false,stim,false,2,946,2,0,1,83476,WMM2,1468331,false,false,1884,image-keyboard-response,24
true,16,1,1,1,true,z,false,true,0.0-2.0-0.62-0.562-3.562,0,0,1,90,false,stim,false,0,652,2,1,0,83476,WMM2,1470518,false,false,1887,image-keyboard-response,25
true,16,0,1,0,true,q,false,true,0.0-2.0-0.62-0.563-3.563,0,0,1,81,false,stim,false,2,1158,2,0,1,83476,WMM2,1473205,false,false,1890,image-keyboard-response,26
true,16,1,1,1,true,z,false,true,0.0-2.0-0.62-0.564-3.564,0,0,1,90,false,stim,false,0,670,2,1,0,83476,WMM2,1475416,false,false,1893,image-keyboard-response,27
true,16,2,1,2,true,d,false,true,0.0-2.0-0.62-0.565-3.565,0,0,1,68,false,stim,false,2,735,2,1,2,83476,WMM2,1477693,false,false,1896,image-keyboard-response,28
true,16,0,1,0,true,q,false,true,0.0-2.0-0.62-0.566-3.566,0,0,1,81,false,stim,false,2,914,2,0,1,83476,WMM2,1480150,false,false,1899,image-keyboard-response,29
true,16,1,1,2,false,d,true,false,0.0-2.0-0.63-0.567-3.567,0,0,1,90,false,stim,false,2,894,2,1,2,83476,WMM2,1482570,false,false,1902,image-keyboard-response,30
true,17,1,2,1,true,z,false,true,0.0-2.0-0.63-0.568-3.568,1,0,1,90,true,stim,false,1,392,2,1,0,83476,WMM2,1484488,false,false,1905,image-keyboard-response,1
true,17,0,2,2,false,d,false,false,0.0-2.0-0.63-0.569-3.569,1,0,1,81,false,stim,true,0,564,2,0,1,83476,WMM2,1486580,false,false,1908,image-keyboard-response,2
true,17,0,2,2,false,d,false,false,0.0-2.0-0.63-0.570-3.570,1,0,1,81,false,stim,true,0,408,2,0,1,83476,WMM2,1488523,false,false,1911,image-keyboard-response,3
true,17,0,2,2,false,d,false,true,0.0-2.0-0.63-0.571-3.571,1,0,1,81,false,stim,true,0,1256,2,0,1,83476,WMM2,1491313,false,true,1914,image-keyboard-response,4
true,17,1,2,1,true,z,false,true,0.0-2.0-0.63-0.572-3.572,1,0,1,90,false,stim,false,1,902,2,1,0,83476,WMM2,1493759,false,false,1917,image-keyboard-response,5
true,17,2,2,2,true,d,false,true,0.0-2.0-0.63-0.573-3.573,1,0,1,68,false,stim,false,2,1033,2,1,2,83476,WMM2,1496330,false,false,1920,image-keyboard-response,6
true,17,1,2,1,true,z,false,true,0.0-2.0-0.63-0.574-3.574,1,0,1,90,false,stim,false,1,675,2,1,0,83476,WMM2,1498542,false,false,1923,image-keyboard-response,7
true,17,0,2,2,false,d,true,false,0.0-2.0-0.63-0.575-3.575,1,0,1,81,false,stim,false,2,1759,2,1,2,83476,WMM2,1501825,false,false,1926,image-keyboard-response,8
true,17,2,2,2,true,d,false,true,0.0-2.0-0.64-0.576-3.576,1,0,1,68,false,stim,false,2,557,2,1,2,83476,WMM2,1503922,false,false,1929,image-keyboard-response,9
false,17,-1,2,2,false,d,true,false,0.0-2.0-0.64-0.577-3.577,1,0,1,,false,stim,false,0,,2,0,1,83476,WMM2,1508484,false,false,1932,image-keyboard-response,10
true,17,1,2,1,true,z,false,true,0.0-2.0-0.64-0.578-3.578,1,0,1,90,false,stim,false,1,705,2,1,0,83476,WMM2,1510722,false,false,1935,image-keyboard-response,11
true,17,0,2,2,false,d,false,true,0.0-2.0-0.64-0.579-3.579,1,0,1,81,false,stim,true,0,978,2,0,1,83476,WMM2,1513233,false,true,1938,image-keyboard-response,12
true,17,0,2,2,false,d,false,false,0.0-2.0-0.64-0.580-3.580,1,0,1,81,false,stim,true,0,535,2,0,1,83476,WMM2,1515311,false,false,1941,image-keyboard-response,13
true,17,2,2,2,true,d,false,true,0.0-2.0-0.64-0.581-3.581,1,0,1,68,false,stim,false,2,2306,2,1,2,83476,WMM2,1519142,false,false,1944,image-keyboard-response,14
true,17,1,2,1,true,z,false,true,0.0-2.0-0.64-0.582-3.582,1,0,1,90,false,stim,false,1,902,2,1,0,83476,WMM2,1521578,false,false,1947,image-keyboard-response,15
true,17,2,2,2,true,d,false,true,0.0-2.0-0.64-0.583-3.583,1,0,1,68,false,stim,false,2,1058,2,1,2,83476,WMM2,1524174,false,false,1950,image-keyboard-response,16
true,17,1,2,1,true,z,false,true,0.0-2.0-0.64-0.584-3.584,1,0,1,90,false,stim,false,1,545,2,1,0,83476,WMM2,1526261,false,false,1953,image-keyboard-response,17
true,17,0,2,2,false,d,false,false,0.0-2.0-0.65-0.585-3.585,1,0,1,81,false,stim,true,0,1902,2,0,1,83476,WMM2,1529699,false,false,1956,image-keyboard-response,18
true,17,1,2,1,true,z,false,true,0.0-2.0-0.65-0.586-3.586,1,0,1,90,false,stim,false,1,530,2,1,0,83476,WMM2,1531766,false,false,1959,image-keyboard-response,19
true,17,2,2,2,true,d,false,true,0.0-2.0-0.65-0.587-3.587,1,0,1,68,false,stim,false,2,1087,2,1,2,83476,WMM2,1534382,false,false,1962,image-keyboard-response,20
true,17,1,2,1,true,z,false,true,0.0-2.0-0.65-0.588-3.588,1,0,1,90,false,stim,false,1,1560,2,1,0,83476,WMM2,1537476,false,false,1965,image-keyboard-response,21
true,17,0,2,2,false,d,true,false,0.0-2.0-0.65-0.589-3.589,1,0,1,81,false,stim,false,2,1921,2,1,2,83476,WMM2,1540938,false,false,1968,image-keyboard-response,22
true,17,0,2,2,false,d,false,false,0.0-2.0-0.65-0.590-3.590,1,0,1,81,false,stim,true,0,2458,2,0,1,83476,WMM2,1544934,false,false,1971,image-keyboard-response,23
true,17,1,2,1,true,z,false,true,0.0-2.0-0.65-0.591-3.591,1,0,1,90,false,stim,false,1,604,2,1,0,83476,WMM2,1547081,false,false,1974,image-keyboard-response,24
true,17,2,2,2,true,d,false,true,0.0-2.0-0.65-0.592-3.592,1,0,1,68,false,stim,false,2,1876,2,1,2,83476,WMM2,1550493,false,false,1977,image-keyboard-response,25
true,17,0,2,2,false,d,false,true,0.0-2.0-0.65-0.593-3.593,1,0,1,81,false,stim,true,0,2398,2,0,1,83476,WMM2,1554433,false,true,1980,image-keyboard-response,26
true,17,2,2,2,true,d,false,true,0.0-2.0-0.66-0.594-3.594,1,0,1,68,false,stim,false,2,1043,2,1,2,83476,WMM2,1557009,false,false,1983,image-keyboard-response,27
true,17,2,2,2,true,d,false,true,0.0-2.0-0.66-0.595-3.595,1,0,1,68,false,stim,false,2,406,2,1,2,83476,WMM2,1558952,false,false,1986,image-keyboard-response,28
true,17,1,2,1,true,z,false,true,0.0-2.0-0.66-0.596-3.596,1,0,1,90,false,stim,false,1,792,2,1,0,83476,WMM2,1561278,false,false,1989,image-keyboard-response,29
true,17,0,2,2,false,d,false,false,0.0-2.0-0.66-0.597-3.597,1,0,1,81,false,stim,true,0,734,2,0,1,83476,WMM2,1563540,false,false,1992,image-keyboard-response,30
true,17,1,2,2,false,d,true,false,0.0-2.0-0.66-0.598-3.598,1,0,1,90,false,stim,false,2,681,2,1,2,83476,WMM2,1565766,false,false,1995,image-keyboard-response,31
true,17,2,2,2,true,d,false,true,0.0-2.0-0.66-0.599-3.599,1,0,1,68,false,stim,false,0,838,2,0,1,83476,WMM2,1568143,false,false,1998,image-keyboard-response,32
true,17,1,2,1,true,z,false,false,0.0-2.0-0.66-0.600-3.600,1,0,1,90,false,stim,false,1,596,2,1,0,83476,WMM2,1570291,false,true,2001,image-keyboard-response,33
true,17,0,2,1,false,z,true,false,0.0-2.0-0.66-0.601-3.601,1,0,1,81,false,stim,false,1,776,2,1,0,83476,WMM2,1572602,false,false,2004,image-keyboard-response,34
true,17,2,2,2,true,d,false,true,0.0-2.0-0.66-0.602-3.602,1,0,1,68,false,stim,false,0,536,2,0,1,83476,WMM2,1574681,false,false,2007,image-keyboard-response,35
true,17,2,2,2,true,d,false,true,0.0-2.0-0.67-0.603-3.603,1,0,1,68,false,stim,false,0,456,2,0,1,83476,WMM2,1576682,false,false,2010,image-keyboard-response,36
true,17,2,2,1,false,z,true,false,0.0-2.0-0.67-0.604-3.604,1,0,1,68,false,stim,false,1,389,2,1,0,83476,WMM2,1578615,false,false,2013,image-keyboard-response,37
true,17,1,2,1,true,z,false,true,0.0-2.0-0.67-0.605-3.605,1,0,1,90,false,stim,false,1,560,2,1,0,83476,WMM2,1580707,false,false,2016,image-keyboard-response,38
true,17,0,2,2,false,d,true,false,0.0-2.0-0.67-0.606-3.606,1,0,1,81,false,stim,false,2,733,2,1,2,83476,WMM2,1582978,false,false,2019,image-keyboard-response,39
true,17,2,2,2,true,d,false,true,0.0-2.0-0.67-0.607-3.607,1,0,1,68,false,stim,false,2,525,2,1,2,83476,WMM2,1585051,false,false,2022,image-keyboard-response,40
true,17,2,2,2,true,d,false,true,0.0-2.0-0.67-0.608-3.608,1,0,1,68,false,stim,false,2,478,2,1,2,83476,WMM2,1587074,false,false,2025,image-keyboard-response,41
true,17,2,2,2,true,d,false,true,0.0-2.0-0.67-0.609-3.609,1,0,1,68,false,stim,false,0,1003,2,0,1,83476,WMM2,1589619,false,false,2028,image-keyboard-response,42
true,17,2,2,2,true,d,false,true,0.0-2.0-0.67-0.610-3.610,1,0,1,68,false,stim,false,0,496,2,0,1,83476,WMM2,1591652,false,false,2031,image-keyboard-response,43
true,17,1,2,1,true,z,false,true,0.0-2.0-0.67-0.611-3.611,1,0,1,90,false,stim,false,1,619,2,1,0,83476,WMM2,1593814,false,false,2034,image-keyboard-response,44
true,17,1,2,1,true,z,false,true,0.0-2.0-0.68-0.612-3.612,1,0,1,90,false,stim,false,1,411,2,0,0,83476,WMM2,1595767,false,false,2037,image-keyboard-response,45
true,17,1,2,1,true,z,false,true,0.0-2.0-0.68-0.613-3.613,1,0,1,90,false,stim,false,1,349,2,0,0,83476,WMM2,1597645,false,false,2040,image-keyboard-response,46
true,17,2,2,2,true,d,false,true,0.0-2.0-0.68-0.614-3.614,1,0,1,68,false,stim,false,2,886,2,1,2,83476,WMM2,1600061,false,false,2043,image-keyboard-response,47
true,17,2,2,2,true,d,false,true,0.0-2.0-0.68-0.615-3.615,1,0,1,68,false,stim,false,0,583,2,0,1,83476,WMM2,1602179,false,false,2046,image-keyboard-response,48
true,17,1,2,1,true,z,false,true,0.0-2.0-0.68-0.616-3.616,1,0,1,90,false,stim,false,1,873,2,0,0,83476,WMM2,1604579,false,false,2049,image-keyboard-response,49
true,17,2,2,2,true,d,false,true,0.0-2.0-0.68-0.617-3.617,1,0,1,68,false,stim,false,0,2125,2,0,1,83476,WMM2,1608231,false,false,2052,image-keyboard-response,50
true,17,2,2,2,true,d,false,true,0.0-2.0-0.68-0.618-3.618,1,0,1,68,false,stim,false,0,1889,2,0,1,83476,WMM2,1611654,false,false,2055,image-keyboard-response,51
true,17,2,2,2,true,d,false,true,0.0-2.0-0.68-0.619-3.619,1,0,1,68,false,stim,false,2,2701,2,1,2,83476,WMM2,1615888,false,false,2058,image-keyboard-response,52
true,17,2,2,2,true,d,false,true,0.0-2.0-0.68-0.620-3.620,1,0,1,68,false,stim,false,2,2015,2,1,2,83476,WMM2,1619440,false,false,2061,image-keyboard-response,53
true,17,1,2,1,true,z,false,false,0.0-2.0-0.69-0.621-3.621,1,0,1,90,false,stim,false,1,1508,2,0,0,83476,WMM2,1622473,false,true,2064,image-keyboard-response,54
true,18,2,1,0,false,q,true,false,0.0-2.0-0.69-0.622-3.622,0,0,1,68,true,stim,false,1,755,2,0,0,83476,WMM2,1624771,false,false,2067,image-keyboard-response,1
true,18,2,1,2,true,d,false,true,0.0-2.0-0.69-0.623-3.623,0,0,1,68,false,stim,false,2,607,2,1,2,83476,WMM2,1626898,false,false,2070,image-keyboard-response,2
true,18,2,1,2,true,d,false,true,0.0-2.0-0.69-0.624-3.624,0,0,1,68,false,stim,false,2,2611,2,1,2,83476,WMM2,1631047,false,false,2073,image-keyboard-response,3
true,18,2,1,0,false,q,true,false,0.0-2.0-0.69-0.625-3.625,0,0,1,68,false,stim,false,1,1237,2,0,0,83476,WMM2,1633823,false,false,2076,image-keyboard-response,4
true,18,2,1,0,false,q,false,false,0.0-2.0-0.69-0.626-3.626,0,0,1,68,false,stim,true,2,629,2,0,1,83476,WMM2,1635995,false,false,2079,image-keyboard-response,5
true,18,0,1,2,false,d,true,false,0.0-2.0-0.69-0.627-3.627,0,0,1,81,false,stim,false,2,750,2,1,2,83476,WMM2,1638276,false,false,2082,image-keyboard-response,6
true,18,2,1,0,false,q,false,false,0.0-2.0-0.69-0.628-3.628,0,0,1,68,false,stim,true,2,877,2,0,1,83476,WMM2,1640682,false,false,2085,image-keyboard-response,7
true,18,1,1,0,false,q,true,false,0.0-2.0-0.69-0.629-3.629,0,0,1,90,false,stim,false,2,1008,2,0,1,83476,WMM2,1643233,false,false,2088,image-keyboard-response,8
true,18,2,1,2,true,d,false,true,0.0-2.0-0.70-0.630-3.630,0,0,1,68,false,stim,false,2,1056,2,1,2,83476,WMM2,1645824,false,false,2091,image-keyboard-response,9
true,18,1,1,0,false,q,false,true,0.0-2.0-0.70-0.631-3.631,0,0,1,90,false,stim,true,1,1107,2,0,0,83476,WMM2,1648474,false,true,2094,image-keyboard-response,10
true,18,2,1,2,true,d,false,true,0.0-2.0-0.70-0.632-3.632,0,0,1,68,false,stim,false,2,2140,2,1,2,83476,WMM2,1652145,false,false,2097,image-keyboard-response,11
true,18,2,1,0,false,q,false,true,0.0-2.0-0.70-0.633-3.633,0,0,1,68,false,stim,true,2,538,2,0,1,83476,WMM2,1654223,false,true,2100,image-keyboard-response,12
true,18,2,1,0,false,q,false,false,0.0-2.0-0.70-0.634-3.634,0,0,1,68,false,stim,true,2,419,2,0,1,83476,WMM2,1656186,false,false,2103,image-keyboard-response,13
true,18,1,1,0,false,q,false,false,0.0-2.0-0.70-0.635-3.635,0,0,1,90,false,stim,true,1,1897,2,0,0,83476,WMM2,1659623,false,false,2106,image-keyboard-response,14
true,18,2,1,0,false,q,true,false,0.0-2.0-0.70-0.636-3.636,0,0,1,68,false,stim,false,1,419,2,0,0,83476,WMM2,1661586,false,false,2109,image-keyboard-response,15
true,18,2,1,2,true,d,false,true,0.0-2.0-0.70-0.637-3.637,0,0,1,68,false,stim,false,2,850,2,1,2,83476,WMM2,1663976,false,false,2112,image-keyboard-response,16
