answered,blockNum,choice,condition,corResp,correct,correct_response,explo,fb,internal_node_id,isStable_1,isStable_2,isStable_3,key_press,newBlock,part,persev,persevResp,rt,sessNum,stableAS,stimulus,subject,task,time_elapsed,training,trap,trial_index,trial_type,trialsInBlock
true,1,1,0,1,true,z,false,true,0.0-2.0-0.0-0.0-3.0,0,0,0,90,true,stim,false,-1,1217,1,0,1,83476,WMM1,70277,false,false,79,image-keyboard-response,1
true,1,0,0,1,false,z,true,true,0.0-2.0-0.0-0.1-3.1,0,0,0,81,false,stim,false,-1,793,1,0,2,83476,WMM1,72604,false,true,82,image-keyboard-response,2
true,1,2,0,2,true,d,false,true,0.0-2.0-0.0-0.2-3.2,0,0,0,68,false,stim,false,-1,1119,1,0,0,83476,WMM1,75249,false,false,85,image-keyboard-response,3
true,1,2,0,2,true,d,false,true,0.0-2.0-0.0-0.3-3.3,0,0,0,68,false,stim,false,-1,488,1,0,0,83476,WMM1,77276,false,false,88,image-keyboard-response,4
true,1,1,0,1,true,z,false,false,0.0-2.0-0.0-0.4-3.4,0,0,0,90,false,stim,false,-1,738,1,0,1,83476,WMM1,79548,false,true,91,image-keyboard-response,5
true,1,1,0,1,true,z,false,false,0.0-2.0-0.0-0.5-3.5,0,0,0,90,false,stim,false,-1,486,1,0,1,83476,WMM1,81561,false,true,94,image-keyboard-response,6
true,1,0,0,1,false,z,true,false,0.0-2.0-0.0-0.6-3.6,0,0,0,81,false,stim,false,-1,639,1,0,2,83476,WMM1,83728,false,false,97,image-keyboard-response,7
true,1,0,0,1,false,z,true,false,0.0-2.0-0.0-0.7-3.7,0,0,0,81,false,stim,false,-1,511,1,0,2,83476,WMM1,85760,false,false,100,image-keyboard-response,8
true,1,2,0,2,true,d,false,true,0.0-2.0-0.0-0.8-3.8,0,0,0,68,false,stim,false,-1,823,1,0,0,83476,WMM1,88112,false,false,103,image-keyboard-response,9
true,1,2,0,2,true,d,false,true,0.0-2.0-0.1-0.9-3.9,0,0,0,68,false,stim,false,-1,560,1,0,0,83476,WMM1,90199,false,false,106,image-keyboard-response,10
true,1,2,0,2,true,d,false,false,0.0-2.0-0.1-0.10-3.10,0,0,0,68,false,stim,false,-1,437,1,0,0,83476,WMM1,92166,false,true,109,image-keyboard-response,11
true,1,0,0,1,false,z,true,false,0.0-2.0-0.1-0.11-3.11,0,0,0,81,false,stim,false,-1,1442,1,0,1,83476,WMM1,95131,false,false,112,image-keyboard-response,12
true,1,1,0,1,true,z,false,true,0.0-2.0-0.1-0.12-3.12,0,0,0,90,false,stim,false,-1,1141,1,0,2,83476,WMM1,97800,false,false,115,image-keyboard-response,13
true,1,1,0,1,true,z,false,true,0.0-2.0-0.1-0.13-3.13,0,0,0,90,false,stim,false,-1,376,1,0,2,83476,WMM1,99704,false,false,118,image-keyboard-response,14
true,1,1,0,1,true,z,false,true,0.0-2.0-0.1-0.14-3.14,0,0,0,90,false,stim,false,-1,961,1,0,1,83476,WMM1,102200,false,false,121,image-keyboard-response,15
true,1,1,0,1,true,z,false,true,0.0-2.0-0.1-0.15-3.15,0,0,0,90,false,stim,false,-1,498,1,0,1,83476,WMM1,104227,false,false,124,image-keyboard-response,16
true,1,1,0,1,true,z,false,true,0.0-2.0-0.1-0.16-3.16,0,0,0,90,false,stim,false,-1,631,1,0,2,83476,WMM1,106384,false,false,127,image-keyboard-response,17
true,1,2,0,2,true,d,false,true,0.0-2.0-0.1-0.17-3.17,0,0,0,68,false,stim,false,-1,942,1,0,0,83476,WMM1,108850,false,false,130,image-keyboard-response,18
true,1,1,0,1,true,z,false,true,0.0-2.0-0.2-0.18-3.18,0,0,0,90,false,stim,false,-1,764,1,0,2,83476,WMM1,111152,false,false,133,image-keyboard-response,19
true,1,1,0,1,true,z,false,true,0.0-2.0-0.2-0.19-3.19,0,0,0,90,false,stim,false,-1,549,1,0,2,83476,WMM1,113234,false,false,136,image-keyboard-response,20
true,1,1,0,1,true,z,false,true,0.0-2.0-0.2-0.20-3.20,0,0,0,90,false,stim,false,-1,1710,1,0,1,83476,WMM1,116478,false,false,139,image-keyboard-response,21
true,1,2,0,2,true,d,false,true,0.0-2.0-0.2-0.21-3.21,0,0,0,68,false,stim,false,-1,766,1,0,0,83476,WMM1,118754,false,false,142,image-keyboard-response,22
true,1,2,0,2,true,d,false,true,0.0-2.0-0.2-0.22-3.22,0,0,0,68,false,stim,false,-1,373,1,0,0,83476,WMM1,120652,false,false,145,image-keyboard-response,23
true,1,1,0,1,true,z,false,true,0.0-2.0-0.2-0.23-3.23,0,0,0,90,false,stim,false,-1,540,1,0,1,83476,WMM1,122730,false,false,148,image-keyboard-response,24
true,1,1,0,1,true,z,false,true,0.0-2.0-0.2-0.24-3.24,0,0,0,90,false,stim,false,-1,803,1,0,2,83476,WMM1,125041,false,false,151,image-keyboard-response,25
true,1,2,0,2,true,d,false,true,0.0-2.0-0.2-0.25-3.25,0,0,0,68,false,stim,false,-1,624,1,0,0,83476,WMM1,127193,false,false,154,image-keyboard-response,26
true,1,1,0,1,true,z,false,true,0.0-2.0-0.2-0.26-3.26,0,0,0,90,false,stim,false,-1,954,1,0,1,83476,WMM1,129664,false,false,157,image-keyboard-response,27
true,1,1,0,1,true,z,false,true,0.0-2.0-0.3-0.27-3.27,0,0,0,90,false,stim,false,-1,1413,1,0,1,83476,WMM1,132602,false,false,160,image-keyboard-response,28
true,1,1,0,1,true,z,false,true,0.0-2.0-0.3-0.28-3.28,0,0,0,90,false,stim,false,-1,496,1,0,1,83476,WMM1,134625,false,false,163,image-keyboard-response,29
true,1,2,0,2,true,d,false,true,0.0-2.0-0.3-0.29-3.29,0,0,0,68,false,stim,false,-1,679,1,0,0,83476,WMM1,136837,false,false,166,image-keyboard-response,30
true,2,2,1,1,false,z,false,false,0.0-2.0-0.3-0.30-3.30,0,0,0,68,true,stim,true,2,357,1,0,0,83476,WMM1,138725,false,false,169,image-keyboard-response,1
true,2,1,1,2,false,d,false,true,0.0-2.0-0.3-0.31-3.31,0,0,0,90,false,stim,true,1,519,1,0,2,83476,WMM1,140778,false,true,172,image-keyboard-response,2
true,2,2,1,1,false,z,false,false,0.0-2.0-0.3-0.32-3.32,0,0,0,68,false,stim,true,2,446,1,0,0,83476,WMM1,142755,false,false,175,image-keyboard-response,3
true,2,1,1,2,false,d,false,false,0.0-2.0-0.3-0.33-3.33,0,0,0,90,false,stim,true,1,584,1,0,1,83476,WMM1,144872,false,false,178,image-keyboard-response,4
true,2,1,1,2,false,d,false,false,0.0-2.0-0.3-0.34-3.34,0,0,0,90,false,stim,true,1,710,1,0,2,83476,WMM1,147120,false,false,181,image-keyboard-response,5
true,2,1,1,2,false,d,false,false,0.0-2.0-0.3-0.35-3.35,0,0,0,90,false,stim,true,1,538,1,0,2,83476,WMM1,149197,false,false,184,image-keyboard-response,6
true,2,0,1,1,false,z,true,false,0.0-2.0-0.4-0.36-3.36,0,0,0,81,false,stim,false,2,988,1,0,0,83476,WMM1,151698,false,false,187,image-keyboard-response,7
true,2,1,1,1,true,z,false,true,0.0-2.0-0.4-0.37-3.37,0,0,0,90,false,stim,false,2,701,1,0,0,83476,WMM1,153925,false,false,190,image-keyboard-response,8
true,2,0,1,2,false,d,true,false,0.0-2.0-0.4-0.38-3.38,0,0,0,81,false,stim,false,1,1010,1,0,2,83476,WMM1,156461,false,false,193,image-keyboard-response,9
true,2,2,1,2,true,d,false,false,0.0-2.0-0.4-0.39-3.39,0,0,0,68,false,stim,false,1,1531,1,0,1,83476,WMM1,159510,false,true,196,image-keyboard-response,10
true,2,2,1,2,true,d,false,true,0.0-2.0-0.4-0.40-3.40,0,0,0,68,false,stim,false,1,404,1,0,1,83476,WMM1,161442,false,false,199,image-keyboard-response,11
true,2,2,1,2,true,d,false,true,0.0-2.0-0.4-0.41-3.41,0,0,0,68,false,stim,false,1,625,1,0,2,83476,WMM1,163595,false,false,202,image-keyboard-response,12
true,2,2,1,2,true,d,false,true,0.0-2.0-0.4-0.42-3.42,0,0,0,68,false,stim,false,1,502,1,0,1,83476,WMM1,165617,false,false,205,image-keyboard-response,13
true,2,2,1,2,true,d,false,true,0.0-2.0-0.4-0.43-3.43,0,0,0,68,false,stim,false,1,663,1,0,2,83476,WMM1,167810,false,false,208,image-keyboard-response,14
true,2,1,1,1,true,z,false,true,0.0-2.0-0.4-0.44-3.44,0,0,0,90,false,stim,false,2,522,1,0,0,83476,WMM1,169852,false,false,211,image-keyboard-response,15
true,2,2,1,2,true,d,false,true,0.0-2.0-0.5-0.45-3.45,0,0,0,68,false,stim,false,1,528,1,0,1,83476,WMM1,171900,false,false,214,image-keyboard-response,16
true,2,2,1,2,true,d,false,true,0.0-2.0-0.5-0.46-3.46,0,0,0,68,false,stim,false,1,697,1,0,2,83476,WMM1,174135,false,false,217,image-keyboard-response,17
true,2,2,1,1,false,z,false,false,0.0-2.0-0.5-0.47-3.47,0,0,0,68,false,stim,true,2,809,1,0,0,83476,WMM1,176458,false,false,220,image-keyboard-response,18
true,2,2,1,2,true,d,false,true,0.0-2.0-0.5-0.48-3.48,0,0,0,68,false,stim,false,1,486,1,0,1,83476,WMM1,178466,false,false,223,image-keyboard-response,19
true,2,2,1,2,true,d,false,true,0.0-2.0-0.5-0.49-3.49,0,0,0,68,false,stim,false,1,479,1,0,2,83476,WMM1,180468,false,false,226,image-keyboard-response,20
true,2,1,1,1,true,z,false,true,0.0-2.0-0.5-0.50-3.50,0,0,0,90,false,stim,false,2,611,1,0,0,83476,WMM1,182611,false,false,229,image-keyboard-response,21
true,2,1,1,1,true,z,false,true,0.0-2.0-0.5-0.51-3.51,0,0,0,90,false,stim,false,2,398,1,0,0,83476,WMM1,184538,false,false,232,image-keyboard-response,22
true,2,2,1,2,true,d,false,true,0.0-2.0-0.5-0.52-3.52,0,0,0,68,false,stim,false,1,623,1,0,1,83476,WMM1,186680,false,false,235,image-keyboard-response,23
true,2,2,1,2,true,d,false,true,0.0-2.0-0.5-0.53-3.53,0,0,0,68,false,stim,false,1,1535,1,0,2,83476,WMM1,189744,false,false,238,image-keyboard-response,24
true,2,2,1,2,true,d,false,true,0.0-2.0-0.6-0.54-3.54,0,0,0,68,false,stim,false,1,466,1,0,1,83476,WMM1,191737,false,false,241,image-keyboard-response,25
true,2,2,1,1,false,z,false,false,0.0-2.0-0.6-0.55-3.55,0,0,0,68,false,stim,true,2,465,1,0,0,83476,WMM1,193724,false,false,244,image-keyboard-response,26
true,2,2,1,2,true,d,false,true,0.0-2.0-0.6-0.56-3.56,0,0,0,68,false,stim,false,1,503,1,0,2,83476,WMM1,195742,false,false,247,image-keyboard-response,27
true,2,2,1,2,true,d,false,true,0.0-2.0-0.6-0.57-3.57,0,0,0,68,false,stim,false,1,824,1,0,1,83476,WMM1,198084,false,false,250,image-keyboard-response,28
true,2,1,1,1,true,z,false,true,0.0-2.0-0.6-0.58-3.58,0,0,0,90,false,stim,false,2,840,1,0,0,83476,WMM1,200450,false,false,253,image-keyboard-response,29
true,2,1,1,1,true,z,false,true,0.0-2.0-0.6-0.59-3.59,0,0,0,90,false,stim,false,2,408,1,0,0,83476,WMM1,202388,false,false,256,image-keyboard-response,30
true,2,2,1,2,true,d,false,true,0.0-2.0-0.6-0.60-3.60,0,0,0,68,false,stim,false,1,712,1,0,2,83476,WMM1,204629,false,false,259,image-keyboard-response,31
true,2,2,1,2,true,d,false,true,0.0-2.0-0.6-0.61-3.61,0,0,0,68,false,stim,false,1,444,1,0,2,83476,WMM1,206613,false,false,262,image-keyboard-response,32
true,3,2,1,0,false,q,false,false,0.0-2.0-0.6-0.62-3.62,0,0,0,68,true,stim,true,2,1055,1,0,1,83476,WMM1,209183,false,false,265,image-keyboard-response,1
true,3,2,1,0,false,q,false,false,0.0-2.0-0.7-0.63-3.63,0,0,0,68,false,stim,true,2,452,1,0,1,83476,WMM1,211171,false,false,268,image-keyboard-response,2
true,3,0,1,0,true,q,false,true,0.0-2.0-0.7-0.64-3.64,0,0,0,81,false,stim,false,2,1161,1,0,1,83476,WMM1,213871,false,false,271,image-keyboard-response,3
true,3,1,1,0,false,q,false,false,0.0-2.0-0.7-0.65-3.65,0,0,0,90,false,stim,true,1,823,1,0,0,83476,WMM1,216222,false,false,274,image-keyboard-response,4
true,3,0,1,0,true,q,false,false,0.0-2.0-0.7-0.66-3.66,0,0,0,81,false,stim,false,1,787,1,0,0,83476,WMM1,218523,false,true,277,image-keyboard-response,5
true,3,2,1,0,false,q,true,false,0.0-2.0-0.7-0.67-3.67,0,0,0,68,false,stim,false,1,984,1,0,0,83476,WMM1,221034,false,false,280,image-keyboard-response,6
true,3,2,1,1,false,z,false,false,0.0-2.0-0.7-0.68-3.68,0,0,0,68,false,stim,true,2,1389,1,0,2,83476,WMM1,223958,false,false,283,image-keyboard-response,7
true,3,0,1,0,true,q,false,true,0.0-2.0-0.7-0.69-3.69,0,0,0,81,false,stim,false,2,586,1,0,1,83476,WMM1,226075,false,false,286,image-keyboard-response,8
true,3,1,1,1,true,z,false,true,0.0-2.0-0.7-0.70-3.70,0,0,0,90,false,stim,false,2,1127,1,0,2,83476,WMM1,228716,false,false,289,image-keyboard-response,9
true,3,1,1,1,true,z,false,true,0.0-2.0-0.7-0.71-3.71,0,0,0,90,false,stim,false,2,474,1,0,2,83476,WMM1,230714,false,false,292,image-keyboard-response,10
true,3,0,1,0,true,q,false,true,0.0-2.0-0.8-0.72-3.72,0,0,0,81,false,stim,false,2,677,1,0,1,83476,WMM1,232915,false,false,295,image-keyboard-response,11
true,3,1,1,1,true,z,false,false,0.0-2.0-0.8-0.73-3.73,0,0,0,90,false,stim,false,2,578,1,0,2,83476,WMM1,235027,false,true,298,image-keyboard-response,12
true,3,1,1,0,false,q,false,false,0.0-2.0-0.8-0.74-3.74,0,0,0,90,false,stim,true,1,739,1,0,0,83476,WMM1,237289,false,false,301,image-keyboard-response,13
true,3,0,1,0,true,q,false,true,0.0-2.0-0.8-0.75-3.75,0,0,0,81,false,stim,false,2,802,1,0,1,83476,WMM1,239630,false,false,304,image-keyboard-response,14
true,3,1,1,1,true,z,false,true,0.0-2.0-0.8-0.76-3.76,0,0,0,90,false,stim,false,2,663,1,0,2,83476,WMM1,241812,false,false,307,image-keyboard-response,15
true,3,0,1,0,true,q,false,true,0.0-2.0-0.8-0.77-3.77,0,0,0,81,false,stim,false,1,651,1,0,0,83476,WMM1,243999,false,false,310,image-keyboard-response,16
true,3,1,1,1,true,z,false,true,0.0-2.0-0.8-0.78-3.78,0,0,0,90,false,stim,false,2,747,1,0,2,83476,WMM1,246276,false,false,313,image-keyboard-response,17
true,3,0,1,0,true,q,false,true,0.0-2.0-0.8-0.79-3.79,0,0,0,81,false,stim,false,2,1072,1,0,1,83476,WMM1,248871,false,false,316,image-keyboard-response,18
true,3,1,1,0,false,q,false,false,0.0-2.0-0.8-0.80-3.80,0,0,0,90,false,stim,true,1,937,1,0,0,83476,WMM1,251323,false,false,319,image-keyboard-response,19
true,3,0,1,0,true,q,false,true,0.0-2.0-0.9-0.81-3.81,0,0,0,81,false,stim,false,2,541,1,0,1,83476,WMM1,253389,false,false,322,image-keyboard-response,20
true,3,0,1,0,true,q,false,false,0.0-2.0-0.9-0.82-3.82,0,0,0,81,false,stim,false,1,886,1,0,0,83476,WMM1,255806,false,true,325,image-keyboard-response,21
true,3,0,1,0,true,q,false,true,0.0-2.0-0.9-0.83-3.83,0,0,0,81,false,stim,false,2,659,1,0,1,83476,WMM1,257988,false,false,328,image-keyboard-response,22
true,3,1,1,1,true,z,false,true,0.0-2.0-0.9-0.84-3.84,0,0,0,90,false,stim,false,2,993,1,0,2,83476,WMM1,260523,false,false,331,image-keyboard-response,23
true,3,1,1,1,true,z,false,true,0.0-2.0-0.9-0.85-3.85,0,0,0,90,false,stim,false,2,1084,1,0,2,83476,WMM1,263134,false,false,334,image-keyboard-response,24
true,3,0,1,0,true,q,false,true,0.0-2.0-0.9-0.86-3.86,0,0,0,81,false,stim,false,2,656,1,0,1,83476,WMM1,265326,false,false,337,image-keyboard-response,25
true,3,0,1,0,true,q,false,true,0.0-2.0-0.9-0.87-3.87,0,0,0,81,false,stim,false,1,1649,1,0,0,83476,WMM1,268509,false,false,340,image-keyboard-response,26
true,3,1,1,1,true,z,false,true,0.0-2.0-0.9-0.88-3.88,0,0,0,90,false,stim,false,2,606,1,0,2,83476,WMM1,270646,false,false,343,image-keyboard-response,27
true,3,0,1,0,true,q,false,true,0.0-2.0-0.9-0.89-3.89,0,0,0,81,false,stim,false,1,887,1,0,0,83476,WMM1,273057,false,false,346,image-keyboard-response,28
true,3,0,1,0,true,q,false,true,0.0-2.0-0.10-0.90-3.90,0,0,0,81,false,stim,false,1,615,1,0,0,83476,WMM1,275194,false,false,349,image-keyboard-response,29
true,3,0,1,0,true,q,false,true,0.0-2.0-0.10-0.91-3.91,0,0,0,81,false,stim,false,1,398,1,0,0,83476,WMM1,277117,false,false,352,image-keyboard-response,30
true,3,1,1,1,true,z,false,true,0.0-2.0-0.10-0.92-3.92,0,0,0,90,false,stim,false,2,784,1,0,2,83476,WMM1,279424,false,false,355,image-keyboard-response,31
true,3,0,1,0,true,q,false,true,0.0-2.0-0.10-0.93-3.93,0,0,0,81,false,stim,false,1,962,1,0,0,83476,WMM1,281900,false,false,358,image-keyboard-response,32
true,3,1,1,1,true,z,false,false,0.0-2.0-0.10-0.94-3.94,0,0,0,90,false,stim,false,2,737,1,0,2,83476,WMM1,284176,false,true,361,image-keyboard-response,33
true,3,1,1,1,true,z,false,true,0.0-2.0-0.10-0.95-3.95,0,0,0,90,false,stim,false,2,819,1,0,2,83476,WMM1,286518,false,false,364,image-keyboard-response,34
true,3,0,1,0,true,q,false,true,0.0-2.0-0.10-0.96-3.96,0,0,0,81,false,stim,false,2,1323,1,1,1,83476,WMM1,289373,false,false,367,image-keyboard-response,35
true,3,0,1,0,true,q,false,true,0.0-2.0-0.10-0.97-3.97,0,0,0,81,false,stim,false,2,386,1,1,1,83476,WMM1,291286,false,false,370,image-keyboard-response,36
true,4,0,3,0,true,q,false,true,0.0-2.0-0.10-0.98-3.98,0,1,0,81,true,stim,false,0,359,1,1,1,83476,WMM1,293178,false,false,373,image-keyboard-response,1
true,4,1,3,1,true,z,false,true,0.0-2.0-0.11-0.99-3.99,0,1,0,90,false,stim,false,0,911,1,0,0,83476,WMM1,295630,false,false,376,image-keyboard-response,2
true,4,0,3,0,true,q,false,true,0.0-2.0-0.11-0.100-3.100,0,1,0,81,false,stim,false,0,860,1,1,1,83476,WMM1,298026,false,false,379,image-keyboard-response,3
true,4,1,3,2,false,d,false,false,0.0-2.0-0.11-0.101-3.101,0,1,0,90,false,stim,true,1,1774,1,0,2,83476,WMM1,301324,false,false,382,image-keyboard-response,4
true,4,0,3,0,true,q,false,true,0.0-2.0-0.11-0.102-3.102,0,1,0,81,false,stim,false,0,587,1,1,1,83476,WMM1,303436,false,false,385,image-keyboard-response,5
true,4,1,3,2,false,d,false,false,0.0-2.0-0.11-0.103-3.103,0,1,0,90,false,stim,true,1,704,1,0,2,83476,WMM1,305673,false,false,388,image-keyboard-response,6
true,4,2,3,2,true,d,false,true,0.0-2.0-0.11-0.104-3.104,0,1,0,68,false,stim,false,1,915,1,0,2,83476,WMM1,308114,false,false,391,image-keyboard-response,7
true,4,0,3,1,false,z,false,false,0.0-2.0-0.11-0.105-3.105,0,1,0,81,false,stim,true,0,946,1,0,0,83476,WMM1,310575,false,false,394,image-keyboard-response,8
true,4,0,3,0,true,q,false,true,0.0-2.0-0.11-0.106-3.106,0,1,0,81,false,stim,false,0,688,1,1,1,83476,WMM1,312788,false,false,397,image-keyboard-response,9
true,4,1,3,1,true,z,false,true,0.0-2.0-0.11-0.107-3.107,0,1,0,90,false,stim,false,0,516,1,0,0,83476,WMM1,314835,false,false,400,image-keyboard-response,10
true,4,0,3,0,true,q,false,true,0.0-2.0-0.12-0.108-3.108,0,1,0,81,false,stim,false,0,593,1,1,1,83476,WMM1,316953,false,false,403,image-keyboard-response,11
true,4,2,3,2,true,d,false,false,0.0-2.0-0.12-0.109-3.109,0,1,0,68,false,stim,false,1,790,1,0,2,83476,WMM1,319268,false,true,406,image-keyboard-response,12
true,4,0,3,0,true,q,false,true,0.0-2.0-0.12-0.110-3.110,0,1,0,81,false,stim,false,0,636,1,1,1,83476,WMM1,321435,false,false,409,image-keyboard-response,13
true,4,1,3,1,true,z,false,true,0.0-2.0-0.12-0.111-3.111,0,1,0,90,false,stim,false,0,1201,1,0,0,83476,WMM1,324171,false,false,412,image-keyboard-response,14
true,4,2,3,2,true,d,false,true,0.0-2.0-0.12-0.112-3.112,0,1,0,68,false,stim,false,1,947,1,0,2,83476,WMM1,326646,false,false,415,image-keyboard-response,15
true,4,1,3,1,true,z,false,true,0.0-2.0-0.12-0.113-3.113,0,1,0,90,false,stim,false,0,615,1,0,0,83476,WMM1,328784,false,false,418,image-keyboard-response,16
true,4,2,3,2,true,d,false,true,0.0-2.0-0.12-0.114-3.114,0,1,0,68,false,stim,false,1,791,1,0,2,83476,WMM1,331106,false,false,421,image-keyboard-response,17
true,4,1,3,1,true,z,false,false,0.0-2.0-0.12-0.115-3.115,0,1,0,90,false,stim,false,0,1735,1,0,0,83476,WMM1,334364,false,true,424,image-keyboard-response,18
true,4,0,3,0,true,q,false,true,0.0-2.0-0.12-0.116-3.116,0,1,0,81,false,stim,false,0,706,1,1,1,83476,WMM1,336605,false,false,427,image-keyboard-response,19
true,4,1,3,1,true,z,false,true,0.0-2.0-0.13-0.117-3.117,0,1,0,90,false,stim,false,0,634,1,0,0,83476,WMM1,338753,false,false,430,image-keyboard-response,20
true,4,0,3,0,true,q,false,true,0.0-2.0-0.13-0.118-3.118,0,1,0,81,false,stim,false,0,730,1,0,1,83476,WMM1,341010,false,false,433,image-keyboard-response,21
true,4,2,3,2,true,d,false,true,0.0-2.0-0.13-0.119-3.119,0,1,0,68,false,stim,false,1,583,1,1,2,83476,WMM1,343122,false,false,436,image-keyboard-response,22
true,4,2,3,2,true,d,false,false,0.0-2.0-0.13-0.120-3.120,0,1,0,68,false,stim,false,1,434,1,1,2,83476,WMM1,345085,false,true,439,image-keyboard-response,23
true,4,1,3,1,true,z,false,true,0.0-2.0-0.13-0.121-3.121,0,1,0,90,false,stim,false,0,1151,1,0,0,83476,WMM1,347760,false,false,442,image-keyboard-response,24
true,4,0,3,0,true,q,false,true,0.0-2.0-0.13-0.122-3.122,0,1,0,81,false,stim,false,0,618,1,0,1,83476,WMM1,349898,false,false,445,image-keyboard-response,25
true,4,0,3,0,true,q,false,true,0.0-2.0-0.13-0.123-3.123,0,1,0,81,false,stim,false,0,670,1,0,1,83476,WMM1,352090,false,false,448,image-keyboard-response,26
true,4,1,3,1,true,z,false,true,0.0-2.0-0.13-0.124-3.124,0,1,0,90,false,stim,false,0,783,1,0,0,83476,WMM1,354401,false,false,451,image-keyboard-response,27
true,4,2,3,2,true,d,false,true,0.0-2.0-0.13-0.125-3.125,0,1,0,68,false,stim,false,1,519,1,1,2,83476,WMM1,356449,false,false,454,image-keyboard-response,28
true,4,0,3,0,true,q,false,true,0.0-2.0-0.14-0.126-3.126,0,1,0,81,false,stim,false,0,651,1,0,1,83476,WMM1,358636,false,false,457,image-keyboard-response,29
true,4,1,3,2,false,d,false,false,0.0-2.0-0.14-0.127-3.127,0,1,0,90,false,stim,true,1,818,1,1,2,83476,WMM1,360997,false,false,460,image-keyboard-response,30
true,5,1,3,0,false,q,false,true,0.0-2.0-0.14-0.128-3.128,0,0,1,90,true,stim,true,1,599,1,0,0,83476,WMM1,363128,false,true,463,image-keyboard-response,1
true,5,2,3,2,true,d,false,true,0.0-2.0-0.14-0.129-3.129,0,0,1,68,false,stim,false,2,398,1,1,2,83476,WMM1,365057,false,false,466,image-keyboard-response,2
true,5,1,3,0,false,q,false,false,0.0-2.0-0.14-0.130-3.130,0,0,1,90,false,stim,true,1,1476,1,0,0,83476,WMM1,368056,false,false,469,image-keyboard-response,3
true,5,0,3,1,false,z,false,false,0.0-2.0-0.14-0.131-3.131,0,0,1,81,false,stim,true,0,698,1,0,1,83476,WMM1,370278,false,false,472,image-keyboard-response,4
true,5,2,3,2,true,d,false,true,0.0-2.0-0.14-0.132-3.132,0,0,1,68,false,stim,false,2,1064,1,1,2,83476,WMM1,372873,false,false,475,image-keyboard-response,5
true,5,0,3,1,false,z,false,false,0.0-2.0-0.14-0.133-3.133,0,0,1,81,false,stim,true,0,781,1,0,1,83476,WMM1,375190,false,false,478,image-keyboard-response,6
true,5,0,3,0,true,q,false,true,0.0-2.0-0.14-0.134-3.134,0,0,1,81,false,stim,false,1,643,1,0,0,83476,WMM1,377352,false,false,481,image-keyboard-response,7
true,5,1,3,1,true,z,false,true,0.0-2.0-0.15-0.135-3.135,0,0,1,90,false,stim,false,0,451,1,0,1,83476,WMM1,379330,false,false,484,image-keyboard-response,8
true,5,2,3,2,true,d,false,true,0.0-2.0-0.15-0.136-3.136,0,0,1,68,false,stim,false,2,542,1,1,2,83476,WMM1,381397,false,false,487,image-keyboard-response,9
true,5,2,3,2,true,d,false,true,0.0-2.0-0.15-0.137-3.137,0,0,1,68,false,stim,false,2,516,1,1,2,83476,WMM1,383446,false,false,490,image-keyboard-response,10
true,5,1,3,1,true,z,false,true,0.0-2.0-0.15-0.138-3.138,0,0,1,90,false,stim,false,0,556,1,0,1,83476,WMM1,385534,false,false,493,image-keyboard-response,11
true,5,1,3,1,true,z,false,true,0.0-2.0-0.15-0.139-3.139,0,0,1,90,false,stim,false,0,805,1,0,1,83476,WMM1,387874,false,false,496,image-keyboard-response,12
true,5,2,3,2,true,d,false,true,0.0-2.0-0.15-0.140-3.140,0,0,1,68,false,stim,false,2,940,1,1,2,83476,WMM1,390340,false,false,499,image-keyboard-response,13
true,5,0,3,0,true,q,false,true,0.0-2.0-0.15-0.141-3.141,0,0,1,81,false,stim,false,1,509,1,0,0,83476,WMM1,392368,false,false,502,image-keyboard-response,14
true,5,0,3,0,true,q,false,true,0.0-2.0-0.15-0.142-3.142,0,0,1,81,false,stim,false,1,471,1,0,0,83476,WMM1,394370,false,false,505,image-keyboard-response,15
true,5,0,3,0,true,q,false,true,0.0-2.0-0.15-0.143-3.143,0,0,1,81,false,stim,false,1,584,1,0,0,83476,WMM1,396483,false,false,508,image-keyboard-response,16
true,5,1,3,2,false,d,true,true,0.0-2.0-0.16-0.144-3.144,0,0,1,90,false,stim,false,2,1412,1,1,2,83476,WMM1,399412,false,true,511,image-keyboard-response,17
true,5,2,3,1,false,z,true,false,0.0-2.0-0.16-0.145-3.145,0,0,1,68,false,stim,false,0,809,1,0,1,83476,WMM1,401748,false,false,514,image-keyboard-response,18
true,5,0,3,0,true,q,false,true,0.0-2.0-0.16-0.146-3.146,0,0,1,81,false,stim,false,1,887,1,0,0,83476,WMM1,404164,false,false,517,image-keyboard-response,19
true,5,0,3,0,true,q,false,true,0.0-2.0-0.16-0.147-3.147,0,0,1,81,false,stim,false,1,592,1,0,0,83476,WMM1,406301,false,false,520,image-keyboard-response,20
true,5,0,3,0,true,q,false,true,0.0-2.0-0.16-0.148-3.148,0,0,1,81,false,stim,false,1,456,1,0,0,83476,WMM1,408285,false,false,523,image-keyboard-response,21
true,5,2,3,1,false,z,true,false,0.0-2.0-0.16-0.149-3.149,0,0,1,68,false,stim,false,0,936,1,0,1,83476,WMM1,410745,false,false,526,image-keyboard-response,22
true,5,1,3,1,true,z,false,true,0.0-2.0-0.16-0.150-3.150,0,0,1,90,false,stim,false,0,383,1,0,1,83476,WMM1,412653,false,false,529,image-keyboard-response,23
true,5,1,3,2,false,d,true,false,0.0-2.0-0.16-0.151-3.151,0,0,1,90,false,stim,false,2,502,1,1,2,83476,WMM1,414691,false,false,532,image-keyboard-response,24
true,5,2,3,2,true,d,false,false,0.0-2.0-0.16-0.152-3.152,0,0,1,68,false,stim,false,2,409,1,1,2,83476,WMM1,416629,false,true,535,image-keyboard-response,25
true,5,0,3,2,false,d,true,false,0.0-2.0-0.17-0.153-3.153,0,0,1,81,false,stim,false,2,674,1,1,2,83476,WMM1,418830,false,false,538,image-keyboard-response,26
true,5,0,3,0,true,q,false,true,0.0-2.0-0.17-0.154-3.154,0,0,1,81,false,stim,false,1,717,1,0,0,83476,WMM1,421087,false,false,541,image-keyboard-response,27
true,5,0,3,0,true,q,false,false,0.0-2.0-0.17-0.155-3.155,0,0,1,81,false,stim,false,1,356,1,0,0,83476,WMM1,422975,false,true,544,image-keyboard-response,28
true,5,1,3,2,false,d,true,false,0.0-2.0-0.17-0.156-3.156,0,0,1,90,false,stim,false,2,768,1,1,2,83476,WMM1,425277,false,false,547,image-keyboard-response,29
true,5,1,3,1,true,z,false,true,0.0-2.0-0.17-0.157-3.157,0,0,1,90,false,stim,false,0,412,1,0,1,83476,WMM1,427220,false,false,550,image-keyboard-response,30
true,5,1,3,1,true,z,false,true,0.0-2.0-0.17-0.158-3.158,0,0,1,90,false,stim,false,0,887,1,0,1,83476,WMM1,429637,false,false,553,image-keyboard-response,31
true,5,2,3,0,false,q,true,false,0.0-2.0-0.17-0.159-3.159,0,0,1,68,false,stim,false,1,864,1,0,0,83476,WMM1,432013,false,false,556,image-keyboard-response,32
true,5,1,3,1,true,z,false,true,0.0-2.0-0.17-0.160-3.160,0,0,1,90,false,stim,false,0,655,1,0,1,83476,WMM1,434195,false,false,559,image-keyboard-response,33
true,5,2,3,2,true,d,false,true,0.0-2.0-0.17-0.161-3.161,0,0,1,68,false,stim,false,2,1325,1,1,2,83476,WMM1,437039,false,false,562,image-keyboard-response,34
true,5,2,3,2,true,d,false,true,0.0-2.0-0.18-0.162-3.162,0,0,1,68,false,stim,false,2,391,1,1,2,83476,WMM1,438959,false,false,565,image-keyboard-response,35
true,5,2,3,2,true,d,false,true,0.0-2.0-0.18-0.163-3.163,0,0,1,68,false,stim,false,2,512,1,1,2,83476,WMM1,440990,false,false,568,image-keyboard-response,36
true,5,2,3,2,true,d,false,true,0.0-2.0-0.18-0.164-3.164,0,0,1,68,false,stim,false,2,379,1,1,2,83476,WMM1,442889,false,false,571,image-keyboard-response,37
true,5,1,3,0,false,q,false,false,0.0-2.0-0.18-0.165-3.165,0,0,1,90,false,stim,true,1,1335,1,0,0,83476,WMM1,445753,false,false,574,image-keyboard-response,38
true,5,2,3,0,false,q,true,false,0.0-2.0-0.18-0.166-3.166,0,0,1,68,false,stim,false,1,780,1,0,0,83476,WMM1,448051,false,false,577,image-keyboard-response,39
true,5,0,3,0,true,q,false,false,0.0-2.0-0.18-0.167-3.167,0,0,1,81,false,stim,false,1,638,1,0,0,83476,WMM1,450213,false,true,580,image-keyboard-response,40
true,5,1,3,1,true,z,false,true,0.0-2.0-0.18-0.168-3.168,0,0,1,90,false,stim,false,0,662,1,0,1,83476,WMM1,452404,false,false,583,image-keyboard-response,41
true,5,1,3,1,true,z,false,true,0.0-2.0-0.18-0.169-3.169,0,0,1,90,false,stim,false,0,508,1,0,1,83476,WMM1,454447,false,false,586,image-keyboard-response,42
true,5,1,3,1,true,z,false,true,0.0-2.0-0.18-0.170-3.170,0,0,1,90,false,stim,false,0,575,1,0,1,83476,WMM1,456555,false,false,589,image-keyboard-response,43
true,5,1,3,0,false,q,false,false,0.0-2.0-0.19-0.171-3.171,0,0,1,90,false,stim,true,1,1225,1,0,0,83476,WMM1,459301,false,false,592,image-keyboard-response,44
true,5,1,3,1,true,z,false,true,0.0-2.0-0.19-0.172-3.172,0,0,1,90,false,stim,false,0,659,1,0,1,83476,WMM1,461497,false,false,595,image-keyboard-response,45
true,5,2,3,2,true,d,false,false,0.0-2.0-0.19-0.173-3.173,0,0,1,68,false,stim,false,2,490,1,1,2,83476,WMM1,463509,false,true,598,image-keyboard-response,46
true,5,1,3,0,false,q,false,false,0.0-2.0-0.19-0.174-3.174,0,0,1,90,false,stim,true,1,1408,1,0,0,83476,WMM1,466444,false,false,601,image-keyboard-response,47
true,5,1,3,1,true,z,false,true,0.0-2.0-0.19-0.175-3.175,0,0,1,90,false,stim,false,0,456,1,0,1,83476,WMM1,468426,false,false,604,image-keyboard-response,48
true,5,0,3,0,true,q,false,true,0.0-2.0-0.19-0.176-3.176,0,0,1,81,false,stim,false,1,610,1,0,0,83476,WMM1,470550,false,false,607,image-keyboard-response,49
true,5,2,3,2,true,d,false,true,0.0-2.0-0.19-0.177-3.177,0,0,1,68,false,stim,false,2,676,1,1,2,83476,WMM1,472747,false,false,610,image-keyboard-response,50
true,5,1,3,1,true,z,false,true,0.0-2.0-0.19-0.178-3.178,0,0,1,90,false,stim,false,0,618,1,0,1,83476,WMM1,474899,false,false,613,image-keyboard-response,51
true,5,2,3,2,true,d,false,true,0.0-2.0-0.19-0.179-3.179,0,0,1,68,false,stim,false,2,667,1,0,2,83476,WMM1,477091,false,false,616,image-keyboard-response,52
true,5,0,3,0,true,q,false,true,0.0-2.0-0.20-0.180-3.180,0,0,1,81,false,stim,false,1,819,1,1,0,83476,WMM1,479418,false,false,619,image-keyboard-response,53
true,5,2,3,2,true,d,false,true,0.0-2.0-0.20-0.181-3.181,0,0,1,68,false,stim,false,2,575,1,0,2,83476,WMM1,481515,false,false,622,image-keyboard-response,54
true,5,0,3,0,true,q,false,true,0.0-2.0-0.20-0.182-3.182,0,0,1,81,false,stim,false,1,647,1,1,0,83476,WMM1,483694,false,false,625,image-keyboard-response,55
true,5,0,3,0,true,q,false,false,0.0-2.0-0.20-0.183-3.183,0,0,1,81,false,stim,false,1,653,1,1,0,83476,WMM1,485867,false,true,628,image-keyboard-response,56
true,5,1,3,1,true,z,false,true,0.0-2.0-0.20-0.184-3.184,0,0,1,90,false,stim,false,0,753,1,0,1,83476,WMM1,488142,false,false,631,image-keyboard-response,57
true,5,1,3,1,true,z,false,true,0.0-2.0-0.20-0.185-3.185,0,0,1,90,false,stim,false,0,386,1,0,1,83476,WMM1,490050,false,false,634,image-keyboard-response,58
true,5,2,3,2,true,d,false,true,0.0-2.0-0.20-0.186-3.186,0,0,1,68,false,stim,false,2,1499,1,0,2,83476,WMM1,493088,false,false,637,image-keyboard-response,59
true,5,1,3,1,true,z,false,true,0.0-2.0-0.20-0.187-3.187,0,0,1,90,false,stim,false,0,608,1,0,1,83476,WMM1,495238,false,false,640,image-keyboard-response,60
true,6,2,3,0,false,q,false,false,0.0-2.0-0.20-0.188-3.188,1,0,0,68,true,stim,true,2,1131,1,0,2,83476,WMM1,497903,false,false,643,image-keyboard-response,1
true,6,2,3,0,false,q,false,false,0.0-2.0-0.21-0.189-3.189,1,0,0,68,false,stim,true,2,455,1,0,2,83476,WMM1,499897,false,false,646,image-keyboard-response,2
true,6,1,3,2,false,d,false,false,0.0-2.0-0.21-0.190-3.190,1,0,0,90,false,stim,true,1,423,1,0,1,83476,WMM1,501842,false,false,649,image-keyboard-response,3
true,6,1,3,0,false,q,true,true,0.0-2.0-0.21-0.191-3.191,1,0,0,90,false,stim,false,2,450,1,0,2,83476,WMM1,503820,false,true,652,image-keyboard-response,4
true,6,2,3,2,true,d,false,true,0.0-2.0-0.21-0.192-3.192,1,0,0,68,false,stim,false,1,353,1,0,1,83476,WMM1,505713,false,false,655,image-keyboard-response,5
true,6,1,3,0,false,q,true,false,0.0-2.0-0.21-0.193-3.193,1,0,0,90,false,stim,false,2,537,1,0,2,83476,WMM1,507788,false,false,658,image-keyboard-response,6
true,6,0,3,0,true,q,false,true,0.0-2.0-0.21-0.194-3.194,1,0,0,81,false,stim,false,0,709,1,1,0,83476,WMM1,510019,false,false,661,image-keyboard-response,7
true,6,0,3,0,true,q,false,true,0.0-2.0-0.21-0.195-3.195,1,0,0,81,false,stim,false,0,592,1,1,0,83476,WMM1,512143,false,false,664,image-keyboard-response,8
true,6,0,3,0,true,q,false,true,0.0-2.0-0.21-0.196-3.196,1,0,0,81,false,stim,false,0,470,1,1,0,83476,WMM1,514140,false,false,667,image-keyboard-response,9
true,6,2,3,2,true,d,false,true,0.0-2.0-0.21-0.197-3.197,1,0,0,68,false,stim,false,1,581,1,0,1,83476,WMM1,516261,false,false,670,image-keyboard-response,10
true,6,1,3,0,false,q,true,false,0.0-2.0-0.22-0.198-3.198,1,0,0,90,false,stim,false,2,548,1,0,2,83476,WMM1,518338,false,false,673,image-keyboard-response,11
true,6,1,3,0,false,q,true,false,0.0-2.0-0.22-0.199-3.199,1,0,0,90,false,stim,false,2,517,1,0,2,83476,WMM1,520377,false,false,676,image-keyboard-response,12
true,6,0,3,0,true,q,false,true,0.0-2.0-0.22-0.200-3.200,1,0,0,81,false,stim,false,0,594,1,1,0,83476,WMM1,522495,false,false,679,image-keyboard-response,13
true,6,2,3,0,false,q,false,false,0.0-2.0-0.22-0.201-3.201,1,0,0,68,false,stim,true,2,646,1,0,2,83476,WMM1,524677,false,false,682,image-keyboard-response,14
true,6,2,3,2,true,d,false,true,0.0-2.0-0.22-0.202-3.202,1,0,0,68,false,stim,false,1,554,1,0,1,83476,WMM1,526764,false,false,685,image-keyboard-response,15
true,6,2,3,2,true,d,false,true,0.0-2.0-0.22-0.203-3.203,1,0,0,68,false,stim,false,1,482,1,0,1,83476,WMM1,528771,false,false,688,image-keyboard-response,16
true,6,0,3,0,true,q,false,true,0.0-2.0-0.22-0.204-3.204,1,0,0,81,false,stim,false,0,780,1,1,0,83476,WMM1,531089,false,false,691,image-keyboard-response,17
true,6,2,3,2,true,d,false,true,0.0-2.0-0.22-0.205-3.205,1,0,0,68,false,stim,false,1,1254,1,0,1,83476,WMM1,533884,false,false,694,image-keyboard-response,18
true,6,0,3,0,true,q,false,true,0.0-2.0-0.22-0.206-3.206,1,0,0,81,false,stim,false,0,520,1,1,0,83476,WMM1,535931,false,false,697,image-keyboard-response,19
true,6,0,3,0,true,q,false,false,0.0-2.0-0.23-0.207-3.207,1,0,0,81,false,stim,false,0,514,1,1,0,83476,WMM1,537985,false,true,700,image-keyboard-response,20
true,6,0,3,0,true,q,false,true,0.0-2.0-0.23-0.208-3.208,1,0,0,81,false,stim,false,2,691,1,0,2,83476,WMM1,540221,false,false,703,image-keyboard-response,21
true,6,0,3,0,true,q,false,true,0.0-2.0-0.23-0.209-3.209,1,0,0,81,false,stim,false,0,1002,1,1,0,83476,WMM1,542752,false,false,706,image-keyboard-response,22
true,6,2,3,2,true,d,false,true,0.0-2.0-0.23-0.210-3.210,1,0,0,68,false,stim,false,1,488,1,0,1,83476,WMM1,544768,false,false,709,image-keyboard-response,23
true,6,2,3,2,true,d,false,false,0.0-2.0-0.23-0.211-3.211,1,0,0,68,false,stim,false,1,836,1,0,1,83476,WMM1,547137,false,true,712,image-keyboard-response,24
true,6,2,3,2,true,d,false,true,0.0-2.0-0.23-0.212-3.212,1,0,0,68,false,stim,false,1,539,1,0,1,83476,WMM1,549219,false,false,715,image-keyboard-response,25
true,6,0,3,0,true,q,false,true,0.0-2.0-0.23-0.213-3.213,1,0,0,81,false,stim,false,0,1592,1,1,0,83476,WMM1,552352,false,false,718,image-keyboard-response,26
true,6,0,3,0,true,q,false,true,0.0-2.0-0.23-0.214-3.214,1,0,0,81,false,stim,false,2,1631,1,0,2,83476,WMM1,555512,false,false,721,image-keyboard-response,27
true,6,0,3,0,true,q,false,true,0.0-2.0-0.23-0.215-3.215,1,0,0,81,false,stim,false,2,374,1,0,2,83476,WMM1,557415,false,false,724,image-keyboard-response,28
true,6,2,3,2,true,d,false,true,0.0-2.0-0.24-0.216-3.216,1,0,0,68,false,stim,false,1,1175,1,0,1,83476,WMM1,560125,false,false,727,image-keyboard-response,29
true,6,0,3,0,true,q,false,true,0.0-2.0-0.24-0.217-3.217,1,0,0,81,false,stim,false,0,1289,1,0,0,83476,WMM1,562941,false,false,730,image-keyboard-response,30
true,6,2,3,2,true,d,false,true,0.0-2.0-0.24-0.218-3.218,1,0,0,68,false,stim,false,1,1210,1,0,1,83476,WMM1,565680,false,false,733,image-keyboard-response,31
true,6,0,3,0,true,q,false,true,0.0-2.0-0.24-0.219-3.219,1,0,0,81,false,stim,false,0,417,1,0,0,83476,WMM1,567639,false,false,736,image-keyboard-response,32
true,6,2,3,0,false,q,false,true,0.0-2.0-0.24-0.220-3.220,1,0,0,68,false,stim,true,2,640,1,0,2,83476,WMM1,569821,false,true,739,image-keyboard-response,33
true,6,2,3,0,false,q,false,false,0.0-2.0-0.24-0.221-3.221,1,0,0,68,false,stim,true,2,489,1,0,2,83476,WMM1,571849,false,false,742,image-keyboard-response,34
true,6,2,3,2,true,d,false,true,0.0-2.0-0.24-0.222-3.222,1,0,0,68,false,stim,false,1,905,1,0,1,83476,WMM1,574285,false,false,745,image-keyboard-response,35
true,6,2,3,0,false,q,false,false,0.0-2.0-0.24-0.223-3.223,1,0,0,68,false,stim,true,2,2339,1,0,2,83476,WMM1,578160,false,false,748,image-keyboard-response,36
true,6,0,3,0,true,q,false,true,0.0-2.0-0.24-0.224-3.224,1,0,0,81,false,stim,false,0,613,1,0,0,83476,WMM1,580312,false,false,751,image-keyboard-response,37
true,7,2,2,0,false,q,false,false,0.0-2.0-0.25-0.225-3.225,0,0,0,68,true,stim,true,2,634,1,0,1,83476,WMM1,582485,false,false,754,image-keyboard-response,1
true,7,0,2,1,false,z,false,true,0.0-2.0-0.25-0.226-3.226,0,0,0,81,false,stim,true,0,2626,1,0,0,83476,WMM1,586636,false,true,757,image-keyboard-response,2
true,7,0,2,2,false,d,false,false,0.0-2.0-0.25-0.227-3.227,0,0,0,81,false,stim,true,0,1778,1,0,2,83476,WMM1,589948,false,false,760,image-keyboard-response,3
true,7,2,2,2,true,d,false,true,0.0-2.0-0.25-0.228-3.228,0,0,0,68,false,stim,false,0,1208,1,0,2,83476,WMM1,592699,false,false,763,image-keyboard-response,4
true,7,2,2,0,false,q,false,true,0.0-2.0-0.25-0.229-3.229,0,0,0,68,false,stim,true,2,1069,1,0,1,83476,WMM1,595299,false,true,766,image-keyboard-response,5
true,7,2,2,2,true,d,false,true,0.0-2.0-0.25-0.230-3.230,0,0,0,68,false,stim,false,0,582,1,0,2,83476,WMM1,597422,false,false,769,image-keyboard-response,6
true,7,2,2,0,false,q,false,false,0.0-2.0-0.25-0.231-3.231,0,0,0,68,false,stim,true,2,530,1,0,1,83476,WMM1,599490,false,false,772,image-keyboard-response,7
true,7,0,2,1,false,z,false,true,0.0-2.0-0.25-0.232-3.232,0,0,0,81,false,stim,true,0,626,1,0,0,83476,WMM1,601657,false,true,775,image-keyboard-response,8
true,7,0,2,1,false,z,false,false,0.0-2.0-0.25-0.233-3.233,0,0,0,81,false,stim,true,0,385,1,0,0,83476,WMM1,603575,false,false,778,image-keyboard-response,9
true,7,2,2,2,true,d,false,true,0.0-2.0-0.26-0.234-3.234,0,0,0,68,false,stim,false,0,717,1,0,2,83476,WMM1,605828,false,false,781,image-keyboard-response,10
true,7,0,2,1,false,z,false,false,0.0-2.0-0.26-0.235-3.235,0,0,0,81,false,stim,true,0,828,1,0,0,83476,WMM1,608179,false,false,784,image-keyboard-response,11
true,7,2,2,0,false,q,false,false,0.0-2.0-0.26-0.236-3.236,0,0,0,68,false,stim,true,2,659,1,0,1,83476,WMM1,610371,false,false,787,image-keyboard-response,12
true,7,1,2,0,false,q,true,false,0.0-2.0-0.26-0.237-3.237,0,0,0,90,false,stim,false,2,652,1,0,1,83476,WMM1,612563,false,false,790,image-keyboard-response,13
true,7,2,2,2,true,d,false,true,0.0-2.0-0.26-0.238-3.238,0,0,0,68,false,stim,false,0,606,1,0,2,83476,WMM1,614695,false,false,793,image-keyboard-response,14
true,7,2,2,2,true,d,false,true,0.0-2.0-0.26-0.239-3.239,0,0,0,68,false,stim,false,0,454,1,0,2,83476,WMM1,616684,false,false,796,image-keyboard-response,15
true,7,0,2,0,true,q,false,true,0.0-2.0-0.26-0.240-3.240,0,0,0,81,false,stim,false,2,1014,1,0,1,83476,WMM1,619224,false,false,799,image-keyboard-response,16
true,7,1,2,1,true,z,false,true,0.0-2.0-0.26-0.241-3.241,0,0,0,90,false,stim,false,0,736,1,0,0,83476,WMM1,621486,false,false,802,image-keyboard-response,17
true,7,1,2,1,true,z,false,true,0.0-2.0-0.26-0.242-3.242,0,0,0,90,false,stim,false,0,434,1,0,0,83476,WMM1,623444,false,false,805,image-keyboard-response,18
true,7,1,2,1,true,z,false,true,0.0-2.0-0.27-0.243-3.243,0,0,0,90,false,stim,false,0,377,1,0,0,83476,WMM1,625348,false,false,808,image-keyboard-response,19
true,7,2,2,2,true,d,false,true,0.0-2.0-0.27-0.244-3.244,0,0,0,68,false,stim,false,0,555,1,0,2,83476,WMM1,627425,false,false,811,image-keyboard-response,20
true,7,2,2,2,true,d,false,true,0.0-2.0-0.27-0.245-3.245,0,0,0,68,false,stim,false,0,567,1,0,2,83476,WMM1,629517,false,false,814,image-keyboard-response,21
true,7,1,2,1,true,z,false,true,0.0-2.0-0.27-0.246-3.246,0,0,0,90,false,stim,false,0,829,1,0,0,83476,WMM1,631880,false,false,817,image-keyboard-response,22
true,7,0,2,0,true,q,false,true,0.0-2.0-0.27-0.247-3.247,0,0,0,81,false,stim,false,2,490,1,0,1,83476,WMM1,633901,false,false,820,image-keyboard-response,23
true,7,0,2,0,true,q,false,true,0.0-2.0-0.27-0.248-3.248,0,0,0,81,false,stim,false,2,395,1,0,1,83476,WMM1,635825,false,false,823,image-keyboard-response,24
true,7,0,2,0,true,q,false,true,0.0-2.0-0.27-0.249-3.249,0,0,0,81,false,stim,false,2,402,1,0,1,83476,WMM1,637763,false,false,826,image-keyboard-response,25
true,7,2,2,2,true,d,false,true,0.0-2.0-0.27-0.250-3.250,0,0,0,68,false,stim,false,0,670,1,0,2,83476,WMM1,639961,false,false,829,image-keyboard-response,26
true,7,1,2,1,true,z,false,false,0.0-2.0-0.27-0.251-3.251,0,0,0,90,false,stim,false,0,946,1,0,0,83476,WMM1,642437,false,true,832,image-keyboard-response,27
true,7,2,2,2,true,d,false,false,0.0-2.0-0.28-0.252-3.252,0,0,0,68,false,stim,false,0,519,1,0,2,83476,WMM1,644479,false,true,835,image-keyboard-response,28
true,7,0,2,0,true,q,false,true,0.0-2.0-0.28-0.253-3.253,0,0,0,81,false,stim,false,2,516,1,0,1,83476,WMM1,646537,false,false,838,image-keyboard-response,29
true,7,1,2,2,false,d,true,false,0.0-2.0-0.28-0.254-3.254,0,0,0,90,false,stim,false,0,872,1,0,2,83476,WMM1,648933,false,false,841,image-keyboard-response,30
true,7,2,2,1,false,z,true,false,0.0-2.0-0.28-0.255-3.255,0,0,0,68,false,stim,false,0,860,1,0,0,83476,WMM1,651320,false,false,844,image-keyboard-response,31
true,7,2,2,2,true,d,false,true,0.0-2.0-0.28-0.256-3.256,0,0,0,68,false,stim,false,0,646,1,0,2,83476,WMM1,653507,false,false,847,image-keyboard-response,32
true,7,0,2,0,true,q,false,true,0.0-2.0-0.28-0.257-3.257,0,0,0,81,false,stim,false,2,468,1,0,1,83476,WMM1,655509,false,false,850,image-keyboard-response,33
true,8,1,1,0,false,q,false,false,0.0-2.0-0.28-0.258-3.258,0,0,0,90,true,stim,true,1,537,1,0,0,83476,WMM1,657578,false,false,853,image-keyboard-response,1
true,8,0,1,1,false,z,false,false,0.0-2.0-0.28-0.259-3.259,0,0,0,81,false,stim,true,0,688,1,0,1,83476,WMM1,659809,false,false,856,image-keyboard-response,2
true,8,0,1,0,true,q,false,true,0.0-2.0-0.28-0.260-3.260,0,0,0,81,false,stim,false,1,746,1,0,0,83476,WMM1,662086,false,false,859,image-keyboard-response,3
true,8,2,1,1,false,z,false,false,0.0-2.0-0.29-0.261-3.261,0,0,0,68,false,stim,true,2,509,1,0,2,83476,WMM1,664129,false,false,862,image-keyboard-response,4
true,8,0,1,0,true,q,false,true,0.0-2.0-0.29-0.262-3.262,0,0,0,81,false,stim,false,1,497,1,0,0,83476,WMM1,666151,false,false,865,image-keyboard-response,5
true,8,0,1,0,true,q,false,true,0.0-2.0-0.29-0.263-3.263,0,0,0,81,false,stim,false,1,409,1,0,0,83476,WMM1,668089,false,false,868,image-keyboard-response,6
true,8,0,1,0,true,q,false,true,0.0-2.0-0.29-0.264-3.264,0,0,0,81,false,stim,false,1,441,1,0,0,83476,WMM1,670061,false,false,871,image-keyboard-response,7
true,8,1,1,1,true,z,false,true,0.0-2.0-0.29-0.265-3.265,0,0,0,90,false,stim,false,0,749,1,0,1,83476,WMM1,672350,false,false,874,image-keyboard-response,8
true,8,1,1,1,true,z,false,true,0.0-2.0-0.29-0.266-3.266,0,0,0,90,false,stim,false,0,397,1,0,1,83476,WMM1,674277,false,false,877,image-keyboard-response,9
true,8,2,1,1,false,z,false,true,0.0-2.0-0.29-0.267-3.267,0,0,0,68,false,stim,true,2,1187,1,0,2,83476,WMM1,676987,false,true,880,image-keyboard-response,10
true,8,2,1,1,false,z,false,false,0.0-2.0-0.29-0.268-3.268,0,0,0,68,false,stim,true,2,559,1,0,2,83476,WMM1,679070,false,false,883,image-keyboard-response,11
true,8,1,1,1,true,z,false,true,0.0-2.0-0.29-0.269-3.269,0,0,0,90,false,stim,false,0,612,1,0,1,83476,WMM1,681222,false,false,886,image-keyboard-response,12
true,8,0,1,0,true,q,false,true,0.0-2.0-0.30-0.270-3.270,0,0,0,81,false,stim,false,1,883,1,0,0,83476,WMM1,683635,false,false,889,image-keyboard-response,13
true,8,1,1,1,true,z,false,true,0.0-2.0-0.30-0.271-3.271,0,0,0,90,false,stim,false,0,554,1,0,1,83476,WMM1,685715,false,false,892,image-keyboard-response,14
true,8,2,1,1,false,z,false,false,0.0-2.0-0.30-0.272-3.272,0,0,0,68,false,stim,true,2,1191,1,0,2,83476,WMM1,688432,false,false,895,image-keyboard-response,15
true,8,0,1,0,true,q,false,true,0.0-2.0-0.30-0.273-3.273,0,0,0,81,false,stim,false,1,761,1,0,0,83476,WMM1,690732,false,false,898,image-keyboard-response,16
true,8,1,1,1,true,z,false,true,0.0-2.0-0.30-0.274-3.274,0,0,0,90,false,stim,false,2,1016,1,0,2,83476,WMM1,693293,false,false,901,image-keyboard-response,17
true,8,1,1,1,true,z,false,true,0.0-2.0-0.30-0.275-3.275,0,0,0,90,false,stim,false,0,516,1,0,1,83476,WMM1,695336,false,false,904,image-keyboard-response,18
true,8,1,1,1,true,z,false,true,0.0-2.0-0.30-0.276-3.276,0,0,0,90,false,stim,false,2,529,1,0,2,83476,WMM1,697390,false,false,907,image-keyboard-response,19
true,8,0,1,0,true,q,false,true,0.0-2.0-0.30-0.277-3.277,0,0,0,81,false,stim,false,1,445,1,0,0,83476,WMM1,699366,false,false,910,image-keyboard-response,20
true,8,1,1,1,true,z,false,true,0.0-2.0-0.30-0.278-3.278,0,0,0,90,false,stim,false,0,559,1,0,1,83476,WMM1,701450,false,false,913,image-keyboard-response,21
true,8,1,1,1,true,z,false,true,0.0-2.0-0.31-0.279-3.279,0,0,0,90,false,stim,false,2,501,1,0,2,83476,WMM1,703492,false,false,916,image-keyboard-response,22
true,8,0,1,0,true,q,false,true,0.0-2.0-0.31-0.280-3.280,0,0,0,81,false,stim,false,1,474,1,0,0,83476,WMM1,705494,false,false,919,image-keyboard-response,23
true,8,1,1,1,true,z,false,true,0.0-2.0-0.31-0.281-3.281,0,0,0,90,false,stim,false,2,507,1,0,2,83476,WMM1,707527,false,false,922,image-keyboard-response,24
true,8,1,1,1,true,z,false,true,0.0-2.0-0.31-0.282-3.282,0,0,0,90,false,stim,false,0,688,1,0,1,83476,WMM1,709749,false,false,925,image-keyboard-response,25
true,8,1,1,1,true,z,false,true,0.0-2.0-0.31-0.283-3.283,0,0,0,90,false,stim,false,0,576,1,0,1,83476,WMM1,711856,false,false,928,image-keyboard-response,26
true,8,1,1,1,true,z,false,true,0.0-2.0-0.31-0.284-3.284,0,0,0,90,false,stim,false,0,444,1,0,1,83476,WMM1,713824,false,false,931,image-keyboard-response,27
true,8,0,1,0,true,q,false,true,0.0-2.0-0.31-0.285-3.285,0,0,0,81,false,stim,false,1,1279,1,0,0,83476,WMM1,716629,false,false,934,image-keyboard-response,28
true,8,0,1,0,true,q,false,true,0.0-2.0-0.31-0.286-3.286,0,0,0,81,false,stim,false,1,366,1,0,0,83476,WMM1,718527,false,false,937,image-keyboard-response,29
true,8,1,1,1,true,z,false,true,0.0-2.0-0.31-0.287-3.287,0,0,0,90,false,stim,false,2,533,1,0,2,83476,WMM1,720585,false,false,940,image-keyboard-response,30
true,9,1,2,2,false,d,false,false,0.0-2.0-0.32-0.288-3.288,0,0,0,90,true,stim,true,1,582,1,0,2,83476,WMM1,722692,false,false,943,image-keyboard-response,1
true,9,0,2,1,false,z,false,false,0.0-2.0-0.32-0.289-3.289,0,0,0,81,false,stim,true,0,653,1,0,0,83476,WMM1,724884,false,false,946,image-keyboard-response,2
true,9,0,2,2,false,d,true,false,0.0-2.0-0.32-0.290-3.290,0,0,0,81,false,stim,false,1,616,1,0,2,83476,WMM1,727027,false,false,949,image-keyboard-response,3
true,9,1,2,1,true,z,false,true,0.0-2.0-0.32-0.291-3.291,0,0,0,90,false,stim,false,0,755,1,0,0,83476,WMM1,729290,false,false,952,image-keyboard-response,4
true,9,2,2,2,true,d,false,true,0.0-2.0-0.32-0.292-3.292,0,0,0,68,false,stim,false,1,1048,1,0,2,83476,WMM1,731870,false,false,955,image-keyboard-response,5
true,9,1,2,1,true,z,false,true,0.0-2.0-0.32-0.293-3.293,0,0,0,90,false,stim,false,0,785,1,0,0,83476,WMM1,734186,false,false,958,image-keyboard-response,6
true,9,1,2,0,false,q,false,false,0.0-2.0-0.32-0.294-3.294,0,0,0,90,false,stim,true,1,628,1,0,1,83476,WMM1,736339,false,false,961,image-keyboard-response,7
true,9,0,2,0,true,q,false,true,0.0-2.0-0.32-0.295-3.295,0,0,0,81,false,stim,false,1,730,1,0,1,83476,WMM1,738599,false,false,964,image-keyboard-response,8
true,9,0,2,0,true,q,false,true,0.0-2.0-0.32-0.296-3.296,0,0,0,81,false,stim,false,1,481,1,0,1,83476,WMM1,740612,false,false,967,image-keyboard-response,9
true,9,0,2,0,true,q,false,true,0.0-2.0-0.33-0.297-3.297,0,0,0,81,false,stim,false,1,335,1,0,1,83476,WMM1,742476,false,false,970,image-keyboard-response,10
true,9,0,2,0,true,q,false,true,0.0-2.0-0.33-0.298-3.298,0,0,0,81,false,stim,false,1,427,1,0,1,83476,WMM1,744428,false,false,973,image-keyboard-response,11
true,9,2,2,2,true,d,false,true,0.0-2.0-0.33-0.299-3.299,0,0,0,68,false,stim,false,1,1127,1,0,2,83476,WMM1,747078,false,false,976,image-keyboard-response,12
true,9,1,2,1,true,z,false,true,0.0-2.0-0.33-0.300-3.300,0,0,0,90,false,stim,false,0,540,1,0,0,83476,WMM1,749151,false,false,979,image-keyboard-response,13
true,9,0,2,0,true,q,false,true,0.0-2.0-0.33-0.301-3.301,0,0,0,81,false,stim,false,1,672,1,0,1,83476,WMM1,751363,false,false,982,image-keyboard-response,14
true,9,2,2,2,true,d,false,true,0.0-2.0-0.33-0.302-3.302,0,0,0,68,false,stim,false,1,978,1,0,2,83476,WMM1,753879,false,false,985,image-keyboard-response,15
true,9,2,2,2,true,d,false,true,0.0-2.0-0.33-0.303-3.303,0,0,0,68,false,stim,false,1,355,1,0,2,83476,WMM1,755776,false,false,988,image-keyboard-response,16
true,9,1,2,1,true,z,false,true,0.0-2.0-0.33-0.304-3.304,0,0,0,90,false,stim,false,0,697,1,0,0,83476,WMM1,758009,false,false,991,image-keyboard-response,17
true,9,1,2,1,true,z,false,true,0.0-2.0-0.33-0.305-3.305,0,0,0,90,false,stim,false,0,401,1,0,0,83476,WMM1,759951,false,false,994,image-keyboard-response,18
true,9,1,2,1,true,z,false,true,0.0-2.0-0.34-0.306-3.306,0,0,0,90,false,stim,false,0,349,1,0,0,83476,WMM1,761829,false,false,997,image-keyboard-response,19
true,9,1,2,1,true,z,false,true,0.0-2.0-0.34-0.307-3.307,0,0,0,90,false,stim,false,0,535,1,0,0,83476,WMM1,763896,false,false,1000,image-keyboard-response,20
true,9,2,2,2,true,d,false,true,0.0-2.0-0.34-0.308-3.308,0,0,0,68,false,stim,false,1,1085,1,0,2,83476,WMM1,766527,false,false,1003,image-keyboard-response,21
true,9,1,2,1,true,z,false,true,0.0-2.0-0.34-0.309-3.309,0,0,0,90,false,stim,false,0,529,1,0,0,83476,WMM1,768580,false,false,1006,image-keyboard-response,22
true,9,2,2,2,true,d,false,true,0.0-2.0-0.34-0.310-3.310,0,0,0,68,false,stim,false,1,546,1,0,2,83476,WMM1,770657,false,false,1009,image-keyboard-response,23
true,9,2,2,2,true,d,false,true,0.0-2.0-0.34-0.311-3.311,0,0,0,68,false,stim,false,1,419,1,0,2,83476,WMM1,772610,false,false,1012,image-keyboard-response,24
true,9,0,2,0,true,q,false,true,0.0-2.0-0.34-0.312-3.312,0,0,0,81,false,stim,false,1,675,1,0,1,83476,WMM1,774827,false,false,1015,image-keyboard-response,25
true,9,0,2,0,true,q,false,true,0.0-2.0-0.34-0.313-3.313,0,0,0,81,false,stim,false,1,459,1,0,1,83476,WMM1,776810,false,false,1018,image-keyboard-response,26
true,9,0,2,0,true,q,false,true,0.0-2.0-0.34-0.314-3.314,0,0,0,81,false,stim,false,1,351,1,0,1,83476,WMM1,778703,false,false,1021,image-keyboard-response,27
true,9,1,2,1,true,z,false,true,0.0-2.0-0.35-0.315-3.315,0,0,0,90,false,stim,false,0,739,1,0,0,83476,WMM1,780969,false,false,1024,image-keyboard-response,28
true,9,2,2,0,false,q,true,false,0.0-2.0-0.35-0.316-3.316,0,0,0,68,false,stim,false,1,466,1,0,1,83476,WMM1,782978,false,false,1027,image-keyboard-response,29
true,9,2,2,2,true,d,false,true,0.0-2.0-0.35-0.317-3.317,0,0,0,68,false,stim,false,1,434,1,0,2,83476,WMM1,784935,false,false,1030,image-keyboard-response,30
true,10,2,1,0,false,q,false,true,0.0-2.0-0.35-0.318-3.318,0,0,0,68,true,stim,true,2,416,1,0,2,83476,WMM1,786888,false,true,1033,image-keyboard-response,1
true,10,1,1,2,false,d,false,false,0.0-2.0-0.35-0.319-3.319,0,0,0,90,false,stim,true,1,565,1,0,0,83476,WMM1,788975,false,false,1036,image-keyboard-response,2
true,10,2,1,0,false,q,false,false,0.0-2.0-0.35-0.320-3.320,0,0,0,68,false,stim,true,2,357,1,0,2,83476,WMM1,790868,false,false,1039,image-keyboard-response,3
true,10,1,1,2,false,d,false,true,0.0-2.0-0.35-0.321-3.321,0,0,0,90,false,stim,true,1,451,1,0,0,83476,WMM1,792862,false,true,1042,image-keyboard-response,4
true,10,0,1,1,false,z,false,false,0.0-2.0-0.35-0.322-3.322,0,0,0,81,false,stim,true,0,621,1,0,1,83476,WMM1,795012,false,false,1045,image-keyboard-response,5
true,10,2,1,1,false,z,true,false,0.0-2.0-0.35-0.323-3.323,0,0,0,68,false,stim,false,0,788,1,0,1,83476,WMM1,797339,false,false,1048,image-keyboard-response,6
true,10,0,1,1,false,z,false,false,0.0-2.0-0.36-0.324-3.324,0,0,0,81,false,stim,true,0,581,1,0,1,83476,WMM1,799452,false,false,1051,image-keyboard-response,7
true,10,1,1,0,false,q,true,false,0.0-2.0-0.36-0.325-3.325,0,0,0,90,false,stim,false,2,669,1,0,2,83476,WMM1,801659,false,false,1054,image-keyboard-response,8
true,10,2,1,0,false,q,false,true,0.0-2.0-0.36-0.326-3.326,0,0,0,68,false,stim,true,2,480,1,0,2,83476,WMM1,803672,false,true,1057,image-keyboard-response,9
true,10,1,1,2,false,d,false,false,0.0-2.0-0.36-0.327-3.327,0,0,0,90,false,stim,true,1,368,1,0,0,83476,WMM1,805580,false,false,1060,image-keyboard-response,10
true,10,1,1,1,true,z,false,true,0.0-2.0-0.36-0.328-3.328,0,0,0,90,false,stim,false,0,656,1,0,1,83476,WMM1,807766,false,false,1063,image-keyboard-response,11
true,10,2,1,0,false,q,false,false,0.0-2.0-0.36-0.329-3.329,0,0,0,68,false,stim,true,2,718,1,0,2,83476,WMM1,810009,false,false,1066,image-keyboard-response,12
true,10,1,1,1,true,z,false,true,0.0-2.0-0.36-0.330-3.330,0,0,0,90,false,stim,false,0,599,1,0,1,83476,WMM1,812150,false,false,1069,image-keyboard-response,13
true,10,2,1,2,true,d,false,true,0.0-2.0-0.36-0.331-3.331,0,0,0,68,false,stim,false,1,1040,1,0,0,83476,WMM1,814731,false,false,1072,image-keyboard-response,14
true,10,2,1,2,true,d,false,true,0.0-2.0-0.36-0.332-3.332,0,0,0,68,false,stim,false,1,532,1,0,0,83476,WMM1,816803,false,false,1075,image-keyboard-response,15
true,10,0,1,0,true,q,false,true,0.0-2.0-0.37-0.333-3.333,0,0,0,81,false,stim,false,2,759,1,0,2,83476,WMM1,819091,false,false,1078,image-keyboard-response,16
true,10,2,1,2,true,d,false,true,0.0-2.0-0.37-0.334-3.334,0,0,0,68,false,stim,false,1,710,1,0,0,83476,WMM1,821332,false,false,1081,image-keyboard-response,17
true,10,1,1,1,true,z,false,true,0.0-2.0-0.37-0.335-3.335,0,0,0,90,false,stim,false,0,728,1,0,1,83476,WMM1,823589,false,false,1084,image-keyboard-response,18
true,10,2,1,2,true,d,false,true,0.0-2.0-0.37-0.336-3.336,0,0,0,68,false,stim,false,1,861,1,0,0,83476,WMM1,825981,false,false,1087,image-keyboard-response,19
true,10,2,1,2,true,d,false,true,0.0-2.0-0.37-0.337-3.337,0,0,0,68,false,stim,false,1,377,1,0,0,83476,WMM1,827898,false,false,1090,image-keyboard-response,20
true,10,1,1,1,true,z,false,true,0.0-2.0-0.37-0.338-3.338,0,0,0,90,false,stim,false,0,520,1,0,1,83476,WMM1,829961,false,false,1093,image-keyboard-response,21
true,10,0,1,0,true,q,false,true,0.0-2.0-0.37-0.339-3.339,0,0,0,81,false,stim,false,2,636,1,0,2,83476,WMM1,832128,false,false,1096,image-keyboard-response,22
true,10,1,1,1,true,z,false,true,0.0-2.0-0.37-0.340-3.340,0,0,0,90,false,stim,false,0,495,1,0,1,83476,WMM1,834166,false,false,1099,image-keyboard-response,23
true,10,2,1,0,false,q,false,false,0.0-2.0-0.37-0.341-3.341,0,0,0,68,false,stim,true,2,548,1,0,2,83476,WMM1,836237,false,false,1102,image-keyboard-response,24
true,10,2,1,0,false,q,false,false,0.0-2.0-0.38-0.342-3.342,0,0,0,68,false,stim,true,2,633,1,0,2,83476,WMM1,838404,false,false,1105,image-keyboard-response,25
true,10,0,1,2,false,d,true,false,0.0-2.0-0.38-0.343-3.343,0,0,0,81,false,stim,false,1,800,1,0,0,83476,WMM1,840732,false,false,1108,image-keyboard-response,26
true,10,2,1,2,true,d,false,true,0.0-2.0-0.38-0.344-3.344,0,0,0,68,false,stim,false,1,668,1,0,0,83476,WMM1,842939,false,false,1111,image-keyboard-response,27
true,10,1,1,1,true,z,false,true,0.0-2.0-0.38-0.345-3.345,0,0,0,90,false,stim,false,0,599,1,0,1,83476,WMM1,845070,false,false,1114,image-keyboard-response,28
true,10,2,1,2,true,d,false,true,0.0-2.0-0.38-0.346-3.346,0,0,0,68,false,stim,false,1,457,1,0,0,83476,WMM1,847068,false,false,1117,image-keyboard-response,29
true,10,1,1,1,true,z,false,true,0.0-2.0-0.38-0.347-3.347,0,0,0,90,false,stim,false,0,683,1,0,1,83476,WMM1,849275,false,false,1120,image-keyboard-response,30
true,10,1,1,1,true,z,false,true,0.0-2.0-0.38-0.348-3.348,0,0,0,90,false,stim,false,0,472,1,0,1,83476,WMM1,851283,false,false,1123,image-keyboard-response,31
true,10,0,1,0,true,q,false,true,0.0-2.0-0.38-0.349-3.349,0,0,0,81,false,stim,false,2,600,1,0,2,83476,WMM1,853395,false,false,1126,image-keyboard-response,32
true,11,0,2,2,false,d,false,false,0.0-2.0-0.38-0.350-3.350,0,0,0,81,true,stim,true,0,366,1,0,2,83476,WMM1,855298,false,false,1129,image-keyboard-response,1
true,11,0,2,2,false,d,false,false,0.0-2.0-0.39-0.351-3.351,0,0,0,81,false,stim,true,0,336,1,0,2,83476,WMM1,857166,false,false,1132,image-keyboard-response,2
true,11,2,2,1,false,z,false,false,0.0-2.0-0.39-0.352-3.352,0,0,0,68,false,stim,true,2,1962,1,0,0,83476,WMM1,860652,false,false,1135,image-keyboard-response,3
true,11,2,2,2,true,d,false,true,0.0-2.0-0.39-0.353-3.353,0,0,0,68,false,stim,false,0,936,1,0,2,83476,WMM1,863114,false,false,1138,image-keyboard-response,4
true,11,0,2,1,false,z,true,false,0.0-2.0-0.39-0.354-3.354,0,0,0,81,false,stim,false,2,745,1,0,0,83476,WMM1,865396,false,false,1141,image-keyboard-response,5
true,11,2,2,2,true,d,false,true,0.0-2.0-0.39-0.355-3.355,0,0,0,68,false,stim,false,0,558,1,0,2,83476,WMM1,867488,false,false,1144,image-keyboard-response,6
true,11,1,2,1,true,z,false,true,0.0-2.0-0.39-0.356-3.356,0,0,0,90,false,stim,false,2,703,1,0,0,83476,WMM1,869714,false,false,1147,image-keyboard-response,7
true,11,1,2,0,false,q,false,false,0.0-2.0-0.39-0.357-3.357,0,0,0,90,false,stim,true,1,357,1,0,1,83476,WMM1,871608,false,false,1150,image-keyboard-response,8
true,11,0,2,0,true,q,false,true,0.0-2.0-0.39-0.358-3.358,0,0,0,81,false,stim,false,1,494,1,0,1,83476,WMM1,873645,false,false,1153,image-keyboard-response,9
true,11,0,2,0,true,q,false,true,0.0-2.0-0.39-0.359-3.359,0,0,0,81,false,stim,false,1,492,1,0,1,83476,WMM1,875663,false,false,1156,image-keyboard-response,10
true,11,0,2,0,true,q,false,true,0.0-2.0-0.40-0.360-3.360,0,0,0,81,false,stim,false,1,360,1,0,1,83476,WMM1,877551,false,false,1159,image-keyboard-response,11
true,11,2,2,2,true,d,false,false,0.0-2.0-0.40-0.361-3.361,0,0,0,68,false,stim,false,0,518,1,0,2,83476,WMM1,879609,false,true,1162,image-keyboard-response,12
true,11,1,2,1,true,z,false,true,0.0-2.0-0.40-0.362-3.362,0,0,0,90,false,stim,false,2,700,1,0,0,83476,WMM1,881851,false,false,1165,image-keyboard-response,13
true,11,1,2,1,true,z,false,true,0.0-2.0-0.40-0.363-3.363,0,0,0,90,false,stim,false,2,414,1,0,0,83476,WMM1,883803,false,false,1168,image-keyboard-response,14
true,11,0,2,0,true,q,false,true,0.0-2.0-0.40-0.364-3.364,0,0,0,81,false,stim,false,1,590,1,0,1,83476,WMM1,885921,false,false,1171,image-keyboard-response,15
true,11,1,2,1,true,z,false,false,0.0-2.0-0.40-0.365-3.365,0,0,0,90,false,stim,false,2,561,1,0,0,83476,WMM1,888013,false,true,1174,image-keyboard-response,16
true,11,1,2,2,false,d,true,false,0.0-2.0-0.40-0.366-3.366,0,0,0,90,false,stim,false,0,684,1,0,2,83476,WMM1,890226,false,false,1177,image-keyboard-response,17
true,11,0,2,0,true,q,false,false,0.0-2.0-0.40-0.367-3.367,0,0,0,81,false,stim,false,1,566,1,0,1,83476,WMM1,892327,false,true,1180,image-keyboard-response,18
true,11,2,2,2,true,d,false,true,0.0-2.0-0.40-0.368-3.368,0,0,0,68,false,stim,false,0,868,1,0,2,83476,WMM1,894725,false,false,1183,image-keyboard-response,19
true,11,0,2,0,true,q,false,true,0.0-2.0-0.41-0.369-3.369,0,0,0,81,false,stim,false,1,437,1,0,1,83476,WMM1,896698,false,false,1186,image-keyboard-response,20
true,11,2,2,2,true,d,false,true,0.0-2.0-0.41-0.370-3.370,0,0,0,68,false,stim,false,0,562,1,0,2,83476,WMM1,898783,false,false,1189,image-keyboard-response,21
true,11,2,2,2,true,d,false,true,0.0-2.0-0.41-0.371-3.371,0,0,0,68,false,stim,false,0,450,1,0,2,83476,WMM1,900772,false,false,1192,image-keyboard-response,22
true,11,0,2,0,true,q,false,true,0.0-2.0-0.41-0.372-3.372,0,0,0,81,false,stim,false,1,535,1,1,1,83476,WMM1,902836,false,false,1195,image-keyboard-response,23
true,11,0,2,0,true,q,false,true,0.0-2.0-0.41-0.373-3.373,0,0,0,81,false,stim,false,1,556,1,1,1,83476,WMM1,904917,false,false,1198,image-keyboard-response,24
true,11,1,2,1,true,z,false,true,0.0-2.0-0.41-0.374-3.374,0,0,0,90,false,stim,false,2,1219,1,0,0,83476,WMM1,907668,false,false,1201,image-keyboard-response,25
true,11,2,2,2,true,d,false,true,0.0-2.0-0.41-0.375-3.375,0,0,0,68,false,stim,false,0,1051,1,0,2,83476,WMM1,910252,false,false,1204,image-keyboard-response,26
true,11,1,2,1,true,z,false,true,0.0-2.0-0.41-0.376-3.376,0,0,0,90,false,stim,false,2,1531,1,0,0,83476,WMM1,913321,false,false,1207,image-keyboard-response,27
true,11,1,2,1,true,z,false,true,0.0-2.0-0.41-0.377-3.377,0,0,0,90,false,stim,false,2,458,1,0,0,83476,WMM1,915310,false,false,1210,image-keyboard-response,28
true,11,1,2,1,true,z,false,false,0.0-2.0-0.42-0.378-3.378,0,0,0,90,false,stim,false,2,436,1,0,0,83476,WMM1,917287,false,true,1213,image-keyboard-response,29
true,11,2,2,2,true,d,false,true,0.0-2.0-0.42-0.379-3.379,0,0,0,68,false,stim,false,0,597,1,0,2,83476,WMM1,919419,false,false,1216,image-keyboard-response,30
true,11,1,2,1,true,z,false,true,0.0-2.0-0.42-0.380-3.380,0,0,0,90,false,stim,false,2,560,1,0,0,83476,WMM1,921521,false,false,1219,image-keyboard-response,31
true,12,2,3,0,false,q,false,false,0.0-2.0-0.42-0.381-3.381,0,1,0,68,true,stim,true,2,820,1,0,2,83476,WMM1,923882,false,false,1222,image-keyboard-response,1
true,12,1,3,2,false,d,false,false,0.0-2.0-0.42-0.382-3.382,0,1,0,90,false,stim,true,1,420,1,0,0,83476,WMM1,925831,false,false,1225,image-keyboard-response,2
true,12,1,3,0,false,q,true,false,0.0-2.0-0.42-0.383-3.383,0,1,0,90,false,stim,false,2,531,1,0,2,83476,WMM1,927903,false,false,1228,image-keyboard-response,3
true,12,0,3,0,true,q,false,true,0.0-2.0-0.42-0.384-3.384,0,1,0,81,false,stim,false,0,769,1,1,1,83476,WMM1,930200,false,false,1231,image-keyboard-response,4
true,12,0,3,0,true,q,false,true,0.0-2.0-0.42-0.385-3.385,0,1,0,81,false,stim,false,0,581,1,1,1,83476,WMM1,932307,false,false,1234,image-keyboard-response,5
true,12,0,3,0,true,q,false,true,0.0-2.0-0.42-0.386-3.386,0,1,0,81,false,stim,false,0,508,1,1,1,83476,WMM1,934340,false,false,1237,image-keyboard-response,6
true,12,2,3,2,true,d,false,true,0.0-2.0-0.43-0.387-3.387,0,1,0,68,false,stim,false,1,667,1,0,0,83476,WMM1,936538,false,false,1240,image-keyboard-response,7
true,12,0,3,0,true,q,false,true,0.0-2.0-0.43-0.388-3.388,0,1,0,81,false,stim,false,2,577,1,0,2,83476,WMM1,938649,false,false,1243,image-keyboard-response,8
true,12,0,3,0,true,q,false,true,0.0-2.0-0.43-0.389-3.389,0,1,0,81,false,stim,false,0,406,1,1,1,83476,WMM1,940597,false,false,1246,image-keyboard-response,9
true,12,0,3,0,true,q,false,true,0.0-2.0-0.43-0.390-3.390,0,1,0,81,false,stim,false,0,394,1,1,1,83476,WMM1,942526,false,false,1249,image-keyboard-response,10
true,12,0,3,0,true,q,false,true,0.0-2.0-0.43-0.391-3.391,0,1,0,81,false,stim,false,0,367,1,1,1,83476,WMM1,944417,false,false,1252,image-keyboard-response,11
true,12,2,3,0,false,q,false,true,0.0-2.0-0.43-0.392-3.392,0,1,0,68,false,stim,true,2,997,1,0,2,83476,WMM1,946949,false,true,1255,image-keyboard-response,12
true,12,0,3,2,false,d,true,false,0.0-2.0-0.43-0.393-3.393,0,1,0,81,false,stim,false,1,1054,1,0,0,83476,WMM1,949545,false,false,1258,image-keyboard-response,13
true,12,2,3,2,true,d,false,false,0.0-2.0-0.43-0.394-3.394,0,1,0,68,false,stim,false,1,1082,1,0,0,83476,WMM1,952150,false,true,1261,image-keyboard-response,14
true,12,2,3,0,false,q,false,false,0.0-2.0-0.43-0.395-3.395,0,1,0,68,false,stim,true,2,884,1,0,2,83476,WMM1,954575,false,false,1264,image-keyboard-response,15
true,12,1,3,2,false,d,false,false,0.0-2.0-0.44-0.396-3.396,0,1,0,90,false,stim,true,1,826,1,0,0,83476,WMM1,956937,false,false,1267,image-keyboard-response,16
true,12,0,3,0,true,q,false,false,0.0-2.0-0.44-0.397-3.397,0,1,0,81,false,stim,false,0,597,1,1,1,83476,WMM1,959069,false,true,1270,image-keyboard-response,17
true,12,0,3,2,false,d,true,false,0.0-2.0-0.44-0.398-3.398,0,1,0,81,false,stim,false,1,799,1,0,0,83476,WMM1,961411,false,false,1273,image-keyboard-response,18
true,12,2,3,0,false,q,false,false,0.0-2.0-0.44-0.399-3.399,0,1,0,68,false,stim,true,2,686,1,0,2,83476,WMM1,963627,false,false,1276,image-keyboard-response,19
true,12,1,3,2,false,d,false,false,0.0-2.0-0.44-0.400-3.400,0,1,0,90,false,stim,true,1,873,1,0,0,83476,WMM1,966024,false,false,1279,image-keyboard-response,20
true,12,1,3,0,false,q,true,false,0.0-2.0-0.44-0.401-3.401,0,1,0,90,false,stim,false,0,645,1,1,1,83476,WMM1,968196,false,false,1282,image-keyboard-response,21
true,12,1,3,0,false,q,true,false,0.0-2.0-0.44-0.402-3.402,0,1,0,90,false,stim,false,2,975,1,0,2,83476,WMM1,970707,false,false,1285,image-keyboard-response,22
true,12,0,3,0,true,q,false,false,0.0-2.0-0.44-0.403-3.403,0,1,0,81,false,stim,false,2,908,1,0,2,83476,WMM1,973158,false,true,1288,image-keyboard-response,23
true,12,2,3,0,false,q,true,false,0.0-2.0-0.44-0.404-3.404,0,1,0,68,false,stim,false,0,476,1,1,1,83476,WMM1,975165,false,false,1291,image-keyboard-response,24
true,12,2,3,2,true,d,false,false,0.0-2.0-0.45-0.405-3.405,0,1,0,68,false,stim,false,1,1413,1,0,0,83476,WMM1,978124,false,true,1294,image-keyboard-response,25
true,12,0,3,0,true,q,false,true,0.0-2.0-0.45-0.406-3.406,0,1,0,81,false,stim,false,0,1303,1,1,1,83476,WMM1,980953,false,false,1297,image-keyboard-response,26
true,12,2,3,0,false,q,false,false,0.0-2.0-0.45-0.407-3.407,0,1,0,68,false,stim,true,2,953,1,0,2,83476,WMM1,983445,false,false,1300,image-keyboard-response,27
true,12,0,3,2,false,d,true,false,0.0-2.0-0.45-0.408-3.408,0,1,0,81,false,stim,false,1,981,1,0,0,83476,WMM1,985971,false,false,1303,image-keyboard-response,28
true,12,1,3,0,false,q,true,false,0.0-2.0-0.45-0.409-3.409,0,1,0,90,false,stim,false,2,759,1,0,2,83476,WMM1,988271,false,false,1306,image-keyboard-response,29
true,12,0,3,2,false,d,true,false,0.0-2.0-0.45-0.410-3.410,0,1,0,81,false,stim,false,1,756,1,0,0,83476,WMM1,990569,false,false,1309,image-keyboard-response,30
true,12,0,3,0,true,q,false,true,0.0-2.0-0.45-0.411-3.411,0,1,0,81,false,stim,false,0,381,1,1,1,83476,WMM1,992493,false,false,1312,image-keyboard-response,31
true,12,2,3,0,false,q,false,false,0.0-2.0-0.45-0.412-3.412,0,1,0,68,false,stim,true,2,453,1,0,2,83476,WMM1,994484,false,false,1315,image-keyboard-response,32
true,12,0,3,0,true,q,false,true,0.0-2.0-0.45-0.413-3.413,0,1,0,81,false,stim,false,0,670,1,1,1,83476,WMM1,996702,false,false,1318,image-keyboard-response,33
true,12,1,3,0,false,q,true,false,0.0-2.0-0.46-0.414-3.414,0,1,0,90,false,stim,false,2,1166,1,0,2,83476,WMM1,999396,false,false,1321,image-keyboard-response,34
true,12,0,3,0,true,q,false,true,0.0-2.0-0.46-0.415-3.415,0,1,0,81,false,stim,false,0,498,1,1,1,83476,WMM1,1001429,false,false,1324,image-keyboard-response,35
true,12,0,3,0,true,q,false,true,0.0-2.0-0.46-0.416-3.416,0,1,0,81,false,stim,false,2,684,1,0,2,83476,WMM1,1003656,false,false,1327,image-keyboard-response,36
true,12,0,3,0,true,q,false,true,0.0-2.0-0.46-0.417-3.417,0,1,0,81,false,stim,false,2,363,1,0,2,83476,WMM1,1005554,false,false,1330,image-keyboard-response,37
true,12,0,3,2,false,d,true,false,0.0-2.0-0.46-0.418-3.418,0,1,0,81,false,stim,false,1,964,1,0,0,83476,WMM1,1008055,false,false,1333,image-keyboard-response,38
true,12,0,3,0,true,q,false,true,0.0-2.0-0.46-0.419-3.419,0,1,0,81,false,stim,false,0,421,1,1,1,83476,WMM1,1010022,false,false,1336,image-keyboard-response,39
true,12,2,3,2,true,d,false,true,0.0-2.0-0.46-0.420-3.420,0,1,0,68,false,stim,false,1,773,1,0,0,83476,WMM1,1012334,false,false,1339,image-keyboard-response,40
true,12,0,3,0,true,q,false,true,0.0-2.0-0.46-0.421-3.421,0,1,0,81,false,stim,false,0,584,1,1,1,83476,WMM1,1014457,false,false,1342,image-keyboard-response,41
true,12,2,3,2,true,d,false,true,0.0-2.0-0.46-0.422-3.422,0,1,0,68,false,stim,false,1,528,1,0,0,83476,WMM1,1016520,false,false,1345,image-keyboard-response,42
true,12,0,3,0,true,q,false,false,0.0-2.0-0.47-0.423-3.423,0,1,0,81,false,stim,false,2,371,1,0,2,83476,WMM1,1018432,false,true,1348,image-keyboard-response,43
true,12,0,3,0,true,q,false,true,0.0-2.0-0.47-0.424-3.424,0,1,0,81,false,stim,false,2,479,1,0,2,83476,WMM1,1020440,false,false,1351,image-keyboard-response,44
true,12,0,3,0,true,q,false,true,0.0-2.0-0.47-0.425-3.425,0,1,0,81,false,stim,false,0,397,1,0,1,83476,WMM1,1022368,false,false,1354,image-keyboard-response,45
true,12,2,3,2,true,d,false,true,0.0-2.0-0.47-0.426-3.426,0,1,0,68,false,stim,false,1,580,1,0,0,83476,WMM1,1024490,false,false,1357,image-keyboard-response,46
true,12,0,3,0,true,q,false,true,0.0-2.0-0.47-0.427-3.427,0,1,0,81,false,stim,false,0,425,1,0,1,83476,WMM1,1026453,false,false,1360,image-keyboard-response,47
true,12,0,3,0,true,q,false,true,0.0-2.0-0.47-0.428-3.428,0,1,0,81,false,stim,false,2,1167,1,0,2,83476,WMM1,1029159,false,false,1363,image-keyboard-response,48
true,12,0,3,0,true,q,false,false,0.0-2.0-0.47-0.429-3.429,0,1,0,81,false,stim,false,0,819,1,0,1,83476,WMM1,1031510,false,true,1366,image-keyboard-response,49
true,12,2,3,2,true,d,false,true,0.0-2.0-0.47-0.430-3.430,0,1,0,68,false,stim,false,1,620,1,0,0,83476,WMM1,1033672,false,false,1369,image-keyboard-response,50
true,12,2,3,2,true,d,false,true,0.0-2.0-0.47-0.431-3.431,0,1,0,68,false,stim,false,1,344,1,0,0,83476,WMM1,1035556,false,false,1372,image-keyboard-response,51
true,12,0,3,0,true,q,false,true,0.0-2.0-0.48-0.432-3.432,0,1,0,81,false,stim,false,0,460,1,0,1,83476,WMM1,1037553,false,false,1375,image-keyboard-response,52
true,13,2,4,0,false,q,false,false,0.0-2.0-0.48-0.433-3.433,0,0,0,68,true,stim,true,2,727,1,0,0,83476,WMM1,1039810,false,false,1378,image-keyboard-response,1
true,13,2,4,0,false,q,false,false,0.0-2.0-0.48-0.434-3.434,0,0,0,68,false,stim,true,2,650,1,0,0,83476,WMM1,1041992,false,false,1381,image-keyboard-response,2
true,13,0,4,0,true,q,false,true,0.0-2.0-0.48-0.435-3.435,0,0,0,81,false,stim,false,2,509,1,0,0,83476,WMM1,1044030,false,false,1384,image-keyboard-response,3
true,13,0,4,1,false,z,false,false,0.0-2.0-0.48-0.436-3.436,0,0,0,81,false,stim,true,0,1084,1,0,2,83476,WMM1,1046645,false,false,1387,image-keyboard-response,4
true,13,1,4,1,true,z,false,true,0.0-2.0-0.48-0.437-3.437,0,0,0,90,false,stim,false,0,679,1,0,2,83476,WMM1,1048862,false,false,1390,image-keyboard-response,5
true,13,0,4,2,false,d,false,false,0.0-2.0-0.48-0.438-3.438,0,0,0,81,false,stim,true,0,952,1,0,1,83476,WMM1,1051343,false,false,1393,image-keyboard-response,6
true,13,1,4,1,true,z,false,true,0.0-2.0-0.48-0.439-3.439,0,0,0,90,false,stim,false,0,1072,1,0,2,83476,WMM1,1053943,false,false,1396,image-keyboard-response,7
true,13,2,4,2,true,d,false,true,0.0-2.0-0.48-0.440-3.440,0,0,0,68,false,stim,false,0,680,1,0,1,83476,WMM1,1056151,false,false,1399,image-keyboard-response,8
true,13,1,4,1,true,z,false,true,0.0-2.0-0.49-0.441-3.441,0,0,0,90,false,stim,false,0,651,1,0,2,83476,WMM1,1058332,false,false,1402,image-keyboard-response,9
true,13,2,4,2,true,d,false,true,0.0-2.0-0.49-0.442-3.442,0,0,0,68,false,stim,false,0,847,1,0,1,83476,WMM1,1060718,false,false,1405,image-keyboard-response,10
true,13,0,4,0,true,q,false,false,0.0-2.0-0.49-0.443-3.443,0,0,0,81,false,stim,false,2,494,1,0,0,83476,WMM1,1062746,false,true,1408,image-keyboard-response,11
true,13,2,4,2,true,d,false,true,0.0-2.0-0.49-0.444-3.444,0,0,0,68,false,stim,false,0,680,1,0,1,83476,WMM1,1064953,false,false,1411,image-keyboard-response,12
true,13,2,4,2,true,d,false,true,0.0-2.0-0.49-0.445-3.445,0,0,0,68,false,stim,false,0,534,1,0,1,83476,WMM1,1067026,false,false,1414,image-keyboard-response,13
true,13,0,4,0,true,q,false,true,0.0-2.0-0.49-0.446-3.446,0,0,0,81,false,stim,false,2,1428,1,0,0,83476,WMM1,1069979,false,false,1417,image-keyboard-response,14
true,13,1,4,1,true,z,false,true,0.0-2.0-0.49-0.447-3.447,0,0,0,90,false,stim,false,0,1328,1,0,2,83476,WMM1,1072839,false,false,1420,image-keyboard-response,15
true,13,0,4,0,true,q,false,true,0.0-2.0-0.49-0.448-3.448,0,0,0,81,false,stim,false,2,1457,1,0,0,83476,WMM1,1075829,false,false,1423,image-keyboard-response,16
true,13,1,4,1,true,z,false,true,0.0-2.0-0.49-0.449-3.449,0,0,0,90,false,stim,false,0,1058,1,0,2,83476,WMM1,1078419,false,false,1426,image-keyboard-response,17
true,13,2,4,2,true,d,false,true,0.0-2.0-0.50-0.450-3.450,0,0,0,68,false,stim,false,0,566,1,0,1,83476,WMM1,1080527,false,false,1429,image-keyboard-response,18
true,13,1,4,0,false,q,true,false,0.0-2.0-0.50-0.451-3.451,0,0,0,90,false,stim,false,2,1539,1,0,0,83476,WMM1,1083600,false,false,1432,image-keyboard-response,19
true,13,0,4,0,true,q,false,true,0.0-2.0-0.50-0.452-3.452,0,0,0,81,false,stim,false,2,516,1,0,0,83476,WMM1,1085658,false,false,1435,image-keyboard-response,20
true,13,0,4,0,true,q,false,true,0.0-2.0-0.50-0.453-3.453,0,0,0,81,false,stim,false,2,390,1,0,0,83476,WMM1,1087582,false,false,1438,image-keyboard-response,21
true,13,2,4,2,true,d,false,true,0.0-2.0-0.50-0.454-3.454,0,0,0,68,false,stim,false,0,501,1,1,1,83476,WMM1,1089613,false,false,1441,image-keyboard-response,22
true,13,1,4,1,true,z,false,true,0.0-2.0-0.50-0.455-3.455,0,0,0,90,false,stim,false,0,840,1,1,2,83476,WMM1,1091991,false,false,1444,image-keyboard-response,23
true,13,1,4,1,true,z,false,true,0.0-2.0-0.50-0.456-3.456,0,0,0,90,false,stim,false,0,386,1,1,2,83476,WMM1,1093918,false,false,1447,image-keyboard-response,24
true,13,1,4,1,true,z,false,true,0.0-2.0-0.50-0.457-3.457,0,0,0,90,false,stim,false,0,693,1,1,2,83476,WMM1,1096145,false,false,1450,image-keyboard-response,25
true,13,2,4,2,true,d,false,true,0.0-2.0-0.50-0.458-3.458,0,0,0,68,false,stim,false,0,677,1,1,1,83476,WMM1,1098347,false,false,1453,image-keyboard-response,26
true,13,0,4,0,true,q,false,true,0.0-2.0-0.51-0.459-3.459,0,0,0,81,false,stim,false,2,1360,1,1,0,83476,WMM1,1101231,false,false,1456,image-keyboard-response,27
true,13,1,4,1,true,z,false,true,0.0-2.0-0.51-0.460-3.460,0,0,0,90,false,stim,false,0,881,1,1,2,83476,WMM1,1103652,false,false,1459,image-keyboard-response,28
true,13,0,4,0,true,q,false,true,0.0-2.0-0.51-0.461-3.461,0,0,0,81,false,stim,false,2,1506,1,1,0,83476,WMM1,1106692,false,false,1462,image-keyboard-response,29
true,13,0,4,0,true,q,false,true,0.0-2.0-0.51-0.462-3.462,0,0,0,81,false,stim,false,2,373,1,1,0,83476,WMM1,1108604,false,false,1465,image-keyboard-response,30
true,13,1,4,1,true,z,false,true,0.0-2.0-0.51-0.463-3.463,0,0,0,90,false,stim,false,0,2130,1,1,2,83476,WMM1,1112262,false,false,1468,image-keyboard-response,31
true,14,2,0,2,true,d,false,true,0.0-2.0-0.51-0.464-3.464,1,1,1,68,true,stim,false,2,2361,1,1,1,83476,WMM1,1238332,false,false,1591,image-keyboard-response,1
true,14,1,0,1,true,z,false,true,0.0-2.0-0.51-0.465-3.465,1,1,1,90,false,stim,false,1,1121,1,1,2,83476,WMM1,1240993,false,false,1594,image-keyboard-response,2
true,14,2,0,2,true,d,false,true,0.0-2.0-0.51-0.466-3.466,1,1,1,68,false,stim,false,2,475,1,1,1,83476,WMM1,1243006,false,false,1597,image-keyboard-response,3
true,14,2,0,2,true,d,false,true,0.0-2.0-0.51-0.467-3.467,1,1,1,68,false,stim,false,2,441,1,1,1,83476,WMM1,1244973,false,false,1600,image-keyboard-response,4
true,14,2,0,2,true,d,false,true,0.0-2.0-0.52-0.468-3.468,1,1,1,68,false,stim,false,2,404,1,1,1,83476,WMM1,1246917,false,false,1603,image-keyboard-response,5
true,14,1,0,1,true,z,false,true,0.0-2.0-0.52-0.469-3.469,1,1,1,90,false,stim,false,1,848,1,1,2,83476,WMM1,1249299,false,false,1606,image-keyboard-response,6
true,14,0,0,0,true,q,false,true,0.0-2.0-0.52-0.470-3.470,1,1,1,81,false,stim,false,0,575,1,1,0,83476,WMM1,1251408,false,false,1609,image-keyboard-response,7
true,14,1,0,1,true,z,false,true,0.0-2.0-0.52-0.471-3.471,1,1,1,90,false,stim,false,1,727,1,1,2,83476,WMM1,1253659,false,false,1612,image-keyboard-response,8
true,14,0,0,0,true,q,false,true,0.0-2.0-0.52-0.472-3.472,1,1,1,81,false,stim,false,0,827,1,1,0,83476,WMM1,1256021,false,false,1615,image-keyboard-response,9
true,14,1,0,2,false,d,true,false,0.0-2.0-0.52-0.473-3.473,1,1,1,90,false,stim,false,2,700,1,1,1,83476,WMM1,1258253,false,false,1618,image-keyboard-response,10
true,14,1,0,1,true,z,false,true,0.0-2.0-0.52-0.474-3.474,1,1,1,90,false,stim,false,1,575,1,1,2,83476,WMM1,1260366,false,false,1621,image-keyboard-response,11
true,14,2,0,2,true,d,false,true,0.0-2.0-0.52-0.475-3.475,1,1,1,68,false,stim,false,2,458,1,1,1,83476,WMM1,1262350,false,false,1624,image-keyboard-response,12
true,14,0,0,0,true,q,false,true,0.0-2.0-0.52-0.476-3.476,1,1,1,81,false,stim,false,0,649,1,1,0,83476,WMM1,1264542,false,false,1627,image-keyboard-response,13
true,14,2,0,2,true,d,false,true,0.0-2.0-0.53-0.477-3.477,1,1,1,68,false,stim,false,2,507,1,1,1,83476,WMM1,1266580,false,false,1630,image-keyboard-response,14
true,14,1,0,1,true,z,false,false,0.0-2.0-0.53-0.478-3.478,1,1,1,90,false,stim,false,1,718,1,1,2,83476,WMM1,1268831,false,true,1633,image-keyboard-response,15
true,14,1,0,1,true,z,false,true,0.0-2.0-0.53-0.479-3.479,1,1,1,90,false,stim,false,1,562,1,1,2,83476,WMM1,1270923,false,false,1636,image-keyboard-response,16
true,14,0,0,0,true,q,false,true,0.0-2.0-0.53-0.480-3.480,1,1,1,81,false,stim,false,0,595,1,1,0,83476,WMM1,1273057,false,false,1639,image-keyboard-response,17
true,14,2,0,2,true,d,false,true,0.0-2.0-0.53-0.481-3.481,1,1,1,68,false,stim,false,2,458,1,1,1,83476,WMM1,1275050,false,false,1642,image-keyboard-response,18
true,14,2,0,2,true,d,false,false,0.0-2.0-0.53-0.482-3.482,1,1,1,68,false,stim,false,2,1228,1,1,1,83476,WMM1,1277820,false,true,1645,image-keyboard-response,19
true,14,2,0,0,false,q,true,false,0.0-2.0-0.53-0.483-3.483,1,1,1,68,false,stim,false,0,896,1,1,0,83476,WMM1,1280257,false,false,1648,image-keyboard-response,20
true,14,1,0,1,true,z,false,true,0.0-2.0-0.53-0.484-3.484,1,1,1,90,false,stim,false,1,529,1,1,2,83476,WMM1,1282331,false,false,1651,image-keyboard-response,21
true,14,0,0,0,true,q,false,true,0.0-2.0-0.53-0.485-3.485,1,1,1,81,false,stim,false,0,462,1,1,0,83476,WMM1,1284333,false,false,1654,image-keyboard-response,22
true,14,0,0,0,true,q,false,true,0.0-2.0-0.54-0.486-3.486,1,1,1,81,false,stim,false,0,435,1,1,0,83476,WMM1,1286307,false,false,1657,image-keyboard-response,23
true,14,1,0,1,true,z,false,true,0.0-2.0-0.54-0.487-3.487,1,1,1,90,false,stim,false,1,1255,1,0,2,83476,WMM1,1289107,false,false,1660,image-keyboard-response,24
true,14,2,0,0,false,q,true,false,0.0-2.0-0.54-0.488-3.488,1,1,1,68,false,stim,false,0,1822,1,0,0,83476,WMM1,1292465,false,false,1663,image-keyboard-response,25
true,14,2,0,2,true,d,false,true,0.0-2.0-0.54-0.489-3.489,1,1,1,68,false,stim,false,2,934,1,0,1,83476,WMM1,1294937,false,false,1666,image-keyboard-response,26
true,14,1,0,1,true,z,false,false,0.0-2.0-0.54-0.490-3.490,1,1,1,90,false,stim,false,1,487,1,0,2,83476,WMM1,1296950,false,true,1669,image-keyboard-response,27
true,14,2,0,2,true,d,false,true,0.0-2.0-0.54-0.491-3.491,1,1,1,68,false,stim,false,2,426,1,0,1,83476,WMM1,1298908,false,false,1672,image-keyboard-response,28
true,14,2,0,2,true,d,false,true,0.0-2.0-0.54-0.492-3.492,1,1,1,68,false,stim,false,2,450,1,0,1,83476,WMM1,1300891,false,false,1675,image-keyboard-response,29
true,14,1,0,1,true,z,false,false,0.0-2.0-0.54-0.493-3.493,1,1,1,90,false,stim,false,1,957,1,0,2,83476,WMM1,1303388,false,true,1678,image-keyboard-response,30
true,14,0,0,0,true,q,false,true,0.0-2.0-0.54-0.494-3.494,1,1,1,81,false,stim,false,0,459,1,0,0,83476,WMM1,1305372,false,false,1681,image-keyboard-response,31
true,14,0,0,1,false,z,true,false,0.0-2.0-0.55-0.495-3.495,1,1,1,81,false,stim,false,1,531,1,0,2,83476,WMM1,1307434,false,false,1684,image-keyboard-response,32
true,14,2,0,1,false,z,true,false,0.0-2.0-0.55-0.496-3.496,1,1,1,68,false,stim,false,1,665,1,0,2,83476,WMM1,1309627,false,false,1687,image-keyboard-response,33
true,15,2,2,0,false,q,false,false,0.0-2.0-0.55-0.497-3.497,0,0,0,68,true,stim,true,2,638,1,0,1,83476,WMM1,1311799,false,false,1690,image-keyboard-response,1
true,15,0,2,1,false,z,false,false,0.0-2.0-0.55-0.498-3.498,0,0,0,81,false,stim,true,0,765,1,0,0,83476,WMM1,1314097,false,false,1693,image-keyboard-response,2
true,15,1,2,1,true,z,false,true,0.0-2.0-0.55-0.499-3.499,0,0,0,90,false,stim,false,0,950,1,0,0,83476,WMM1,1316582,false,false,1696,image-keyboard-response,3
true,15,0,2,2,false,d,true,false,0.0-2.0-0.55-0.500-3.500,0,0,0,81,false,stim,false,1,971,1,0,2,83476,WMM1,1319084,false,false,1699,image-keyboard-response,4
true,15,0,2,0,true,q,false,true,0.0-2.0-0.55-0.501-3.501,0,0,0,81,false,stim,false,2,993,1,0,1,83476,WMM1,1321605,false,false,1702,image-keyboard-response,5
true,15,0,2,0,true,q,false,true,0.0-2.0-0.55-0.502-3.502,0,0,0,81,false,stim,false,2,556,1,0,1,83476,WMM1,1323689,false,false,1705,image-keyboard-response,6
true,15,1,2,1,true,z,false,true,0.0-2.0-0.55-0.503-3.503,0,0,0,90,false,stim,false,0,773,1,0,0,83476,WMM1,1325985,false,false,1708,image-keyboard-response,7
true,15,0,2,0,true,q,false,true,0.0-2.0-0.56-0.504-3.504,0,0,0,81,false,stim,false,2,604,1,0,1,83476,WMM1,1328116,false,false,1711,image-keyboard-response,8
true,15,1,2,1,true,z,false,true,0.0-2.0-0.56-0.505-3.505,0,0,0,90,false,stim,false,0,1152,1,0,0,83476,WMM1,1330803,false,false,1714,image-keyboard-response,9
true,15,2,2,2,true,d,false,true,0.0-2.0-0.56-0.506-3.506,0,0,0,68,false,stim,false,1,2318,1,0,2,83476,WMM1,1334650,false,false,1717,image-keyboard-response,10
true,15,2,2,2,true,d,false,true,0.0-2.0-0.56-0.507-3.507,0,0,0,68,false,stim,false,1,555,1,0,2,83476,WMM1,1336747,false,false,1720,image-keyboard-response,11
true,15,2,2,2,true,d,false,true,0.0-2.0-0.56-0.508-3.508,0,0,0,68,false,stim,false,1,528,1,0,2,83476,WMM1,1338800,false,false,1723,image-keyboard-response,12
true,15,1,2,1,true,z,false,true,0.0-2.0-0.56-0.509-3.509,0,0,0,90,false,stim,false,0,1099,1,0,0,83476,WMM1,1341431,false,false,1726,image-keyboard-response,13
true,15,1,2,1,true,z,false,true,0.0-2.0-0.56-0.510-3.510,0,0,0,90,false,stim,false,0,651,1,0,0,83476,WMM1,1343623,false,false,1729,image-keyboard-response,14
true,15,0,2,0,true,q,false,true,0.0-2.0-0.56-0.511-3.511,0,0,0,81,false,stim,false,2,689,1,0,1,83476,WMM1,1345840,false,false,1732,image-keyboard-response,15
true,15,0,2,0,true,q,false,true,0.0-2.0-0.56-0.512-3.512,0,0,0,81,false,stim,false,2,529,1,0,1,83476,WMM1,1347903,false,false,1735,image-keyboard-response,16
true,15,2,2,2,true,d,false,true,0.0-2.0-0.57-0.513-3.513,0,0,0,68,false,stim,false,1,2058,1,0,2,83476,WMM1,1351490,false,false,1738,image-keyboard-response,17
true,15,0,2,0,true,q,false,false,0.0-2.0-0.57-0.514-3.514,0,0,0,81,false,stim,false,2,879,1,0,1,83476,WMM1,1353912,false,true,1741,image-keyboard-response,18
true,15,2,2,2,true,d,false,true,0.0-2.0-0.57-0.515-3.515,0,0,0,68,false,stim,false,1,547,1,0,2,83476,WMM1,1355999,false,false,1744,image-keyboard-response,19
true,15,1,2,1,true,z,false,true,0.0-2.0-0.57-0.516-3.516,0,0,0,90,false,stim,false,0,753,1,0,0,83476,WMM1,1358285,false,false,1747,image-keyboard-response,20
true,15,0,2,0,true,q,false,true,0.0-2.0-0.57-0.517-3.517,0,0,0,81,false,stim,false,2,1308,1,0,1,83476,WMM1,1361140,false,false,1750,image-keyboard-response,21
true,15,2,2,2,true,d,false,true,0.0-2.0-0.57-0.518-3.518,0,0,0,68,false,stim,false,1,540,1,0,2,83476,WMM1,1363213,false,false,1753,image-keyboard-response,22
true,15,1,2,1,true,z,false,true,0.0-2.0-0.57-0.519-3.519,0,0,0,90,false,stim,false,0,1500,1,0,0,83476,WMM1,1366252,false,false,1756,image-keyboard-response,23
true,15,0,2,0,true,q,false,true,0.0-2.0-0.57-0.520-3.520,0,0,0,81,false,stim,false,2,971,1,0,1,83476,WMM1,1368753,false,false,1759,image-keyboard-response,24
true,15,1,2,1,true,z,false,true,0.0-2.0-0.57-0.521-3.521,0,0,0,90,false,stim,false,0,828,1,0,0,83476,WMM1,1371120,false,false,1762,image-keyboard-response,25
true,15,2,2,2,true,d,false,true,0.0-2.0-0.58-0.522-3.522,0,0,0,68,false,stim,false,1,2389,1,0,2,83476,WMM1,1375042,false,false,1765,image-keyboard-response,26
true,15,0,2,0,true,q,false,true,0.0-2.0-0.58-0.523-3.523,0,0,0,81,false,stim,false,2,634,1,0,1,83476,WMM1,1377211,false,false,1768,image-keyboard-response,27
true,15,1,2,1,true,z,false,true,0.0-2.0-0.58-0.524-3.524,0,0,0,90,false,stim,false,0,1259,1,0,0,83476,WMM1,1380003,false,false,1771,image-keyboard-response,28
true,15,1,2,1,true,z,false,true,0.0-2.0-0.58-0.525-3.525,0,0,0,90,false,stim,false,0,364,1,0,0,83476,WMM1,1381896,false,false,1774,image-keyboard-response,29
true,15,1,2,1,true,z,false,false,0.0-2.0-0.58-0.526-3.526,0,0,0,90,false,stim,false,0,366,1,0,0,83476,WMM1,1383799,false,true,1777,image-keyboard-response,30
true,16,2,1,0,false,q,false,false,0.0-2.0-0.58-0.527-3.527,0,0,0,68,true,stim,true,2,1515,1,0,2,83476,WMM1,1386848,false,false,1780,image-keyboard-response,1
true,16,0,1,2,false,d,false,false,0.0-2.0-0.58-0.528-3.528,0,0,0,81,false,stim,true,0,642,1,0,1,83476,WMM1,1389014,false,false,1783,image-keyboard-response,2
true,16,0,1,0,true,q,false,true,0.0-2.0-0.58-0.529-3.529,0,0,0,81,false,stim,false,2,1252,1,0,2,83476,WMM1,1391805,false,false,1786,image-keyboard-response,3
true,16,2,1,2,true,d,false,true,0.0-2.0-0.58-0.530-3.530,0,0,0,68,false,stim,false,0,694,1,0,1,83476,WMM1,1394026,false,false,1789,image-keyboard-response,4
true,16,1,1,2,false,d,false,false,0.0-2.0-0.59-0.531-3.531,0,0,0,90,false,stim,true,1,896,1,0,0,83476,WMM1,1396448,false,false,1792,image-keyboard-response,5
true,16,2,1,2,true,d,false,true,0.0-2.0-0.59-0.532-3.532,0,0,0,68,false,stim,false,0,583,1,0,1,83476,WMM1,1398555,false,false,1795,image-keyboard-response,6
true,16,0,1,2,false,d,true,false,0.0-2.0-0.59-0.533-3.533,0,0,0,81,false,stim,false,1,456,1,0,0,83476,WMM1,1400548,false,false,1798,image-keyboard-response,7
true,16,0,1,0,true,q,false,true,0.0-2.0-0.59-0.534-3.534,0,0,0,81,false,stim,false,2,511,1,0,2,83476,WMM1,1402591,false,false,1801,image-keyboard-response,8
true,16,2,1,2,true,d,false,true,0.0-2.0-0.59-0.535-3.535,0,0,0,68,false,stim,false,0,551,1,0,1,83476,WMM1,1404672,false,false,1804,image-keyboard-response,9
true,16,2,1,2,true,d,false,true,0.0-2.0-0.59-0.536-3.536,0,0,0,68,false,stim,false,0,413,1,0,1,83476,WMM1,1406616,false,false,1807,image-keyboard-response,10
true,16,0,1,0,true,q,false,false,0.0-2.0-0.59-0.537-3.537,0,0,0,81,false,stim,false,2,536,1,0,2,83476,WMM1,1408669,false,true,1810,image-keyboard-response,11
true,16,2,1,2,true,d,false,true,0.0-2.0-0.59-0.538-3.538,0,0,0,68,false,stim,false,1,424,1,0,0,83476,WMM1,1410616,false,false,1813,image-keyboard-response,12
true,16,0,1,0,true,q,false,true,0.0-2.0-0.59-0.539-3.539,0,0,0,81,false,stim,false,2,850,1,0,2,83476,WMM1,1413002,false,false,1816,image-keyboard-response,13
true,16,2,1,2,true,d,false,false,0.0-2.0-0.60-0.540-3.540,0,0,0,68,false,stim,false,0,499,1,0,1,83476,WMM1,1415030,false,true,1819,image-keyboard-response,14
true,16,0,1,0,true,q,false,true,0.0-2.0-0.60-0.541-3.541,0,0,0,81,false,stim,false,2,704,1,0,2,83476,WMM1,1417277,false,false,1822,image-keyboard-response,15
true,16,1,1,2,false,d,true,false,0.0-2.0-0.60-0.542-3.542,0,0,0,90,false,stim,false,0,781,1,0,1,83476,WMM1,1419593,false,false,1825,image-keyboard-response,16
true,16,0,1,0,true,q,false,true,0.0-2.0-0.60-0.543-3.543,0,0,0,81,false,stim,false,2,538,1,0,2,83476,WMM1,1421670,false,false,1828,image-keyboard-response,17
true,16,2,1,2,true,d,false,true,0.0-2.0-0.60-0.544-3.544,0,0,0,68,false,stim,false,1,500,1,0,0,83476,WMM1,1423713,false,false,1831,image-keyboard-response,18
true,16,2,1,2,true,d,false,true,0.0-2.0-0.60-0.545-3.545,0,0,0,68,false,stim,false,1,433,1,0,0,83476,WMM1,1425686,false,false,1834,image-keyboard-response,19
true,16,0,1,2,false,d,false,false,0.0-2.0-0.60-0.546-3.546,0,0,0,81,false,stim,true,0,480,1,0,1,83476,WMM1,1427693,false,false,1837,image-keyboard-response,20
true,16,2,1,2,true,d,false,true,0.0-2.0-0.60-0.547-3.547,0,0,0,68,false,stim,false,1,599,1,0,0,83476,WMM1,1429832,false,false,1840,image-keyboard-response,21
true,16,0,1,0,true,q,false,true,0.0-2.0-0.60-0.548-3.548,0,0,0,81,false,stim,false,2,655,1,0,2,83476,WMM1,1432028,false,false,1843,image-keyboard-response,22
true,16,2,1,2,true,d,false,true,0.0-2.0-0.61-0.549-3.549,0,0,0,68,false,stim,false,0,498,1,0,1,83476,WMM1,1434071,false,false,1846,image-keyboard-response,23
true,16,2,1,2,true,d,false,true,0.0-2.0-0.61-0.550-3.550,0,0,0,68,false,stim,false,1,590,1,0,0,83476,WMM1,1436202,false,false,1849,image-keyboard-response,24
true,16,0,1,0,true,q,false,true,0.0-2.0-0.61-0.551-3.551,0,0,0,81,false,stim,false,2,518,1,0,2,83476,WMM1,1438250,false,false,1852,image-keyboard-response,25
true,16,0,1,0,true,q,false,true,0.0-2.0-0.61-0.552-3.552,0,0,0,81,false,stim,false,2,500,1,0,2,83476,WMM1,1440292,false,false,1855,image-keyboard-response,26
true,16,2,1,2,true,d,false,true,0.0-2.0-0.61-0.553-3.553,0,0,0,68,false,stim,false,1,1140,1,0,0,83476,WMM1,1442972,false,false,1858,image-keyboard-response,27
true,16,2,1,2,true,d,false,true,0.0-2.0-0.61-0.554-3.554,0,0,0,68,false,stim,false,1,373,1,0,0,83476,WMM1,1444886,false,false,1861,image-keyboard-response,28
true,16,2,1,2,true,d,false,true,0.0-2.0-0.61-0.555-3.555,0,0,0,68,false,stim,false,0,1243,1,0,1,83476,WMM1,1447665,false,false,1864,image-keyboard-response,29
true,16,2,1,2,true,d,false,true,0.0-2.0-0.61-0.556-3.556,0,0,0,68,false,stim,false,0,396,1,0,1,83476,WMM1,1449598,false,false,1867,image-keyboard-response,30
true,16,0,1,0,true,q,false,true,0.0-2.0-0.61-0.557-3.557,0,0,0,81,false,stim,false,2,2336,1,0,2,83476,WMM1,1453469,false,false,1870,image-keyboard-response,31
true,16,2,1,2,true,d,false,true,0.0-2.0-0.62-0.558-3.558,0,0,0,68,false,stim,false,1,520,1,0,0,83476,WMM1,1455523,false,false,1873,image-keyboard-response,32
true,16,0,1,0,true,q,false,false,0.0-2.0-0.62-0.559-3.559,0,0,0,81,false,stim,false,2,1149,1,0,2,83476,WMM1,1458212,false,true,1876,image-keyboard-response,33
true,16,2,1,2,true,d,false,true,0.0-2.0-0.62-0.560-3.560,0,0,0,68,false,stim,false,0,651,1,0,1,83476,WMM1,1460393,false,false,1879,image-keyboard-response,34
true,16,2,1,2,true,d,false,true,0.0-2.0-0.62-0.561-3.561,0,0,0,68,false,stim,false,1,1730,1,0,0,83476,WMM1,1463662,false,false,1882,image-keyboard-response,35
true,16,2,1,2,true,d,false,true,0.0-2.0-0.62-0.562-3.562,0,0,0,68,false,stim,false,0,721,1,0,1,83476,WMM1,1465914,false,false,1885,image-keyboard-response,36
true,16,2,1,2,true,d,false,true,0.0-2.0-0.62-0.563-3.563,0,0,0,68,false,stim,false,0,439,1,0,1,83476,WMM1,1467891,false,false,1888,image-keyboard-response,37
true,16,2,1,2,true,d,false,true,0.0-2.0-0.62-0.564-3.564,0,0,0,68,false,stim,false,1,1134,1,0,0,83476,WMM1,1470566,false,false,1891,image-keyboard-response,38
true,16,0,1,0,true,q,false,true,0.0-2.0-0.62-0.565-3.565,0,0,0,81,false,stim,false,2,1099,1,0,2,83476,WMM1,1473192,false,false,1894,image-keyboard-response,39
true,17,0,2,2,false,d,false,false,0.0-2.0-0.62-0.566-3.566,0,0,0,81,true,stim,true,0,541,1,0,2,83476,WMM1,1475263,false,false,1897,image-keyboard-response,1
true,17,0,2,2,false,d,false,false,0.0-2.0-0.63-0.567-3.567,0,0,0,81,false,stim,true,0,1630,1,0,2,83476,WMM1,1478432,false,false,1900,image-keyboard-response,2
true,17,2,2,2,true,d,false,true,0.0-2.0-0.63-0.568-3.568,0,0,0,68,false,stim,false,0,681,1,0,2,83476,WMM1,1480644,false,false,1903,image-keyboard-response,3
true,17,2,2,1,false,z,false,false,0.0-2.0-0.63-0.569-3.569,0,0,0,68,false,stim,true,2,350,1,0,0,83476,WMM1,1482532,false,false,1906,image-keyboard-response,4
true,17,0,2,1,false,z,true,false,0.0-2.0-0.63-0.570-3.570,0,0,0,81,false,stim,false,2,770,1,0,0,83476,WMM1,1484823,false,false,1909,image-keyboard-response,5
true,17,2,2,0,false,q,false,false,0.0-2.0-0.63-0.571-3.571,0,0,0,68,false,stim,true,2,996,1,0,1,83476,WMM1,1487349,false,false,1912,image-keyboard-response,6
true,17,1,2,1,true,z,false,true,0.0-2.0-0.63-0.572-3.572,0,0,0,90,false,stim,false,2,1276,1,0,0,83476,WMM1,1490148,false,false,1915,image-keyboard-response,7
true,17,2,2,2,true,d,false,true,0.0-2.0-0.63-0.573-3.573,0,0,0,68,false,stim,false,0,489,1,0,2,83476,WMM1,1492161,false,false,1918,image-keyboard-response,8
true,17,0,2,0,true,q,false,true,0.0-2.0-0.63-0.574-3.574,0,0,0,81,false,stim,false,2,542,1,0,1,83476,WMM1,1494232,false,false,1921,image-keyboard-response,9
true,17,0,2,0,true,q,false,true,0.0-2.0-0.63-0.575-3.575,0,0,0,81,false,stim,false,2,404,1,0,1,83476,WMM1,1496176,false,false,1924,image-keyboard-response,10
true,17,0,2,0,true,q,false,true,0.0-2.0-0.64-0.576-3.576,0,0,0,81,false,stim,false,2,365,1,0,1,83476,WMM1,1498069,false,false,1927,image-keyboard-response,11
true,17,0,2,0,true,q,false,true,0.0-2.0-0.64-0.577-3.577,0,0,0,81,false,stim,false,2,330,1,0,1,83476,WMM1,1499922,false,false,1930,image-keyboard-response,12
true,17,0,2,0,true,q,false,true,0.0-2.0-0.64-0.578-3.578,0,0,0,81,false,stim,false,2,353,1,0,1,83476,WMM1,1501805,false,false,1933,image-keyboard-response,13
true,17,1,2,1,true,z,false,true,0.0-2.0-0.64-0.579-3.579,0,0,0,90,false,stim,false,2,1184,1,0,0,83476,WMM1,1504516,false,false,1936,image-keyboard-response,14
true,17,1,2,1,true,z,false,false,0.0-2.0-0.64-0.580-3.580,0,0,0,90,false,stim,false,2,448,1,0,0,83476,WMM1,1506498,false,true,1939,image-keyboard-response,15
true,17,2,2,2,true,d,false,true,0.0-2.0-0.64-0.581-3.581,0,0,0,68,false,stim,false,0,881,1,0,2,83476,WMM1,1508913,false,false,1942,image-keyboard-response,16
true,17,2,2,2,true,d,false,true,0.0-2.0-0.64-0.582-3.582,0,0,0,68,false,stim,false,0,485,1,0,2,83476,WMM1,1510936,false,false,1945,image-keyboard-response,17
true,17,2,2,2,true,d,false,true,0.0-2.0-0.64-0.583-3.583,0,0,0,68,false,stim,false,0,556,1,0,2,83476,WMM1,1513029,false,false,1948,image-keyboard-response,18
true,17,1,2,1,true,z,false,true,0.0-2.0-0.64-0.584-3.584,0,0,0,90,false,stim,false,2,761,1,0,0,83476,WMM1,1515315,false,false,1951,image-keyboard-response,19
true,17,2,2,2,true,d,false,true,0.0-2.0-0.65-0.585-3.585,0,0,0,68,false,stim,false,0,612,1,0,2,83476,WMM1,1517442,false,false,1954,image-keyboard-response,20
true,17,2,2,2,true,d,false,true,0.0-2.0-0.65-0.586-3.586,0,0,0,68,false,stim,false,0,667,1,0,2,83476,WMM1,1519639,false,false,1957,image-keyboard-response,21
true,17,0,2,0,true,q,false,true,0.0-2.0-0.65-0.587-3.587,0,0,0,81,false,stim,false,2,1092,1,0,1,83476,WMM1,1522264,false,false,1960,image-keyboard-response,22
true,17,1,2,1,true,z,false,true,0.0-2.0-0.65-0.588-3.588,0,0,0,90,false,stim,false,2,734,1,0,0,83476,WMM1,1524526,false,false,1963,image-keyboard-response,23
true,17,1,2,1,true,z,false,true,0.0-2.0-0.65-0.589-3.589,0,0,0,90,false,stim,false,2,951,1,0,0,83476,WMM1,1527002,false,false,1966,image-keyboard-response,24
true,17,2,2,2,true,d,false,true,0.0-2.0-0.65-0.590-3.590,0,0,0,68,false,stim,false,0,920,1,0,2,83476,WMM1,1529453,false,false,1969,image-keyboard-response,25
true,17,1,2,1,true,z,false,true,0.0-2.0-0.65-0.591-3.591,0,0,0,90,false,stim,false,2,1698,1,0,0,83476,WMM1,1532691,false,false,1972,image-keyboard-response,26
true,17,0,2,0,true,q,false,true,0.0-2.0-0.65-0.592-3.592,0,0,0,81,false,stim,false,2,555,1,0,1,83476,WMM1,1534788,false,false,1975,image-keyboard-response,27
true,17,0,2,0,true,q,false,true,0.0-2.0-0.65-0.593-3.593,0,0,0,81,false,stim,false,2,308,1,0,1,83476,WMM1,1536631,false,false,1978,image-keyboard-response,28
true,17,0,2,0,true,q,false,true,0.0-2.0-0.66-0.594-3.594,0,0,0,81,false,stim,false,2,485,1,0,1,83476,WMM1,1538648,false,false,1981,image-keyboard-response,29
true,17,1,2,1,true,z,false,true,0.0-2.0-0.66-0.595-3.595,0,0,0,90,false,stim,false,2,642,1,0,0,83476,WMM1,1540826,false,false,1984,image-keyboard-response,30
true,18,1,1,0,false,q,false,false,0.0-2.0-0.66-0.596-3.596,0,0,0,90,true,stim,true,1,469,1,0,0,83476,WMM1,1542822,false,false,1987,image-keyboard-response,1
true,18,2,1,0,false,q,false,false,0.0-2.0-0.66-0.597-3.597,0,0,0,68,false,stim,true,2,1349,1,0,2,83476,WMM1,1545702,false,false,1990,image-keyboard-response,2
true,18,1,1,0,false,q,true,false,0.0-2.0-0.66-0.598-3.598,0,0,0,90,false,stim,false,2,881,1,0,2,83476,WMM1,1548113,false,false,1993,image-keyboard-response,3
true,18,0,1,1,false,z,false,false,0.0-2.0-0.66-0.599-3.599,0,0,0,81,false,stim,true,0,567,1,0,1,83476,WMM1,1550220,false,false,1996,image-keyboard-response,4
true,18,2,1,0,false,q,true,false,0.0-2.0-0.66-0.600-3.600,0,0,0,68,false,stim,false,1,779,1,0,0,83476,WMM1,1552531,false,false,1999,image-keyboard-response,5
true,18,2,1,0,false,q,false,false,0.0-2.0-0.66-0.601-3.601,0,0,0,68,false,stim,true,2,788,1,0,2,83476,WMM1,1554862,false,false,2002,image-keyboard-response,6
true,18,1,1,1,true,z,false,true,0.0-2.0-0.66-0.602-3.602,0,0,0,90,false,stim,false,0,962,1,0,1,83476,WMM1,1557354,false,false,2005,image-keyboard-response,7
true,18,1,1,1,true,z,false,true,0.0-2.0-0.67-0.603-3.603,0,0,0,90,false,stim,false,0,410,1,0,1,83476,WMM1,1559302,false,false,2008,image-keyboard-response,8
true,18,1,1,1,true,z,false,true,0.0-2.0-0.67-0.604-3.604,0,0,0,90,false,stim,false,0,517,1,0,1,83476,WMM1,1561349,false,false,2011,image-keyboard-response,9
true,18,2,1,0,false,q,true,false,0.0-2.0-0.67-0.605-3.605,0,0,0,68,false,stim,false,1,758,1,0,0,83476,WMM1,1563650,false,false,2014,image-keyboard-response,10
true,18,1,1,1,true,z,false,false,0.0-2.0-0.67-0.606-3.606,0,0,0,90,false,stim,false,0,644,1,0,1,83476,WMM1,1565837,false,true,2017,image-keyboard-response,11
true,18,1,1,0,false,q,true,false,0.0-2.0-0.67-0.607-3.607,0,0,0,90,false,stim,false,2,886,1,0,2,83476,WMM1,1568258,false,false,2020,image-keyboard-response,12
true,18,0,1,0,true,q,false,true,0.0-2.0-0.67-0.608-3.608,0,0,0,81,false,stim,false,1,696,1,0,0,83476,WMM1,1570489,false,false,2023,image-keyboard-response,13
true,18,0,1,0,true,q,false,true,0.0-2.0-0.67-0.609-3.609,0,0,0,81,false,stim,false,1,354,1,0,0,83476,WMM1,1572387,false,false,2026,image-keyboard-response,14
true,18,2,1,0,false,q,false,false,0.0-2.0-0.67-0.610-3.610,0,0,0,68,false,stim,true,2,751,1,0,2,83476,WMM1,1574663,false,false,2029,image-keyboard-response,15
true,18,0,1,0,true,q,false,true,0.0-2.0-0.67-0.611-3.611,0,0,0,81,false,stim,false,2,682,1,0,2,83476,WMM1,1576875,false,false,2032,image-keyboard-response,16
true,18,0,1,0,true,q,false,true,0.0-2.0-0.68-0.612-3.612,0,0,0,81,false,stim,false,2,430,1,0,2,83476,WMM1,1578833,false,false,2035,image-keyboard-response,17
true,18,1,1,1,true,z,false,true,0.0-2.0-0.68-0.613-3.613,0,0,0,90,false,stim,false,0,1005,1,0,1,83476,WMM1,1581379,false,false,2038,image-keyboard-response,18
true,18,1,1,1,true,z,false,false,0.0-2.0-0.68-0.614-3.614,0,0,0,90,false,stim,false,0,429,1,0,1,83476,WMM1,1583342,false,true,2041,image-keyboard-response,19
true,18,1,1,1,true,z,false,true,0.0-2.0-0.68-0.615-3.615,0,0,0,90,false,stim,false,0,362,1,0,1,83476,WMM1,1585236,false,false,2044,image-keyboard-response,20
true,18,0,1,0,true,q,false,true,0.0-2.0-0.68-0.616-3.616,0,0,0,81,false,stim,false,1,629,1,0,0,83476,WMM1,1587402,false,false,2047,image-keyboard-response,21
true,18,0,1,0,true,q,false,true,0.0-2.0-0.68-0.617-3.617,0,0,0,81,false,stim,false,2,1000,1,0,2,83476,WMM1,1589932,false,false,2050,image-keyboard-response,22
true,18,0,1,0,true,q,false,true,0.0-2.0-0.68-0.618-3.618,0,0,0,81,false,stim,false,1,687,1,0,0,83476,WMM1,1592150,false,false,2053,image-keyboard-response,23
true,18,0,1,0,true,q,false,true,0.0-2.0-0.68-0.619-3.619,0,0,0,81,false,stim,false,2,1459,1,0,2,83476,WMM1,1595137,false,false,2056,image-keyboard-response,24
true,18,0,1,0,true,q,false,true,0.0-2.0-0.68-0.620-3.620,0,0,0,81,false,stim,false,1,442,1,0,0,83476,WMM1,1597105,false,false,2059,image-keyboard-response,25
true,18,0,1,0,true,q,false,true,0.0-2.0-0.69-0.621-3.621,0,0,0,81,false,stim,false,1,466,1,0,0,83476,WMM1,1599108,false,false,2062,image-keyboard-response,26
true,18,1,1,1,true,z,false,true,0.0-2.0-0.69-0.622-3.622,0,0,0,90,false,stim,false,0,518,1,0,1,83476,WMM1,1601162,false,false,2065,image-keyboard-response,27
true,18,0,1,0,true,q,false,true,0.0-2.0-0.69-0.623-3.623,0,0,0,81,false,stim,false,2,723,1,0,2,83476,WMM1,1603417,false,false,2068,image-keyboard-response,28
true,18,0,1,0,true,q,false,true,0.0-2.0-0.69-0.624-3.624,0,0,0,81,false,stim,false,2,465,1,0,2,83476,WMM1,1605418,false,false,2071,image-keyboard-response,29
true,18,0,1,0,true,q,false,true,0.0-2.0-0.69-0.625-3.625,0,0,0,81,false,stim,false,1,877,1,0,0,83476,WMM1,1607830,false,false,2074,image-keyboard-response,30
true,19,0,2,1,false,z,false,false,0.0-2.0-0.69-0.626-3.626,0,0,0,81,true,stim,true,0,409,1,0,0,83476,WMM1,1609783,false,false,2077,image-keyboard-response,1
true,19,1,2,0,false,q,false,false,0.0-2.0-0.69-0.627-3.627,0,0,0,90,false,stim,true,1,952,1,0,1,83476,WMM1,1612263,false,false,2080,image-keyboard-response,2
true,19,0,2,0,true,q,false,true,0.0-2.0-0.69-0.628-3.628,0,0,0,81,false,stim,false,1,956,1,0,1,83476,WMM1,1614750,false,false,2083,image-keyboard-response,3
true,19,1,2,2,false,d,true,true,0.0-2.0-0.69-0.629-3.629,0,0,0,90,false,stim,false,0,779,1,0,2,83476,WMM1,1617072,false,true,2086,image-keyboard-response,4
true,19,0,2,0,true,q,false,true,0.0-2.0-0.70-0.630-3.630,0,0,0,81,false,stim,false,1,695,1,0,1,83476,WMM1,1619298,false,false,2089,image-keyboard-response,5
true,19,0,2,1,false,z,false,true,0.0-2.0-0.70-0.631-3.631,0,0,0,81,false,stim,true,0,1634,1,0,0,83476,WMM1,1622446,false,true,2092,image-keyboard-response,6
true,19,1,2,2,false,d,true,false,0.0-2.0-0.70-0.632-3.632,0,0,0,90,false,stim,false,0,589,1,0,2,83476,WMM1,1624563,false,false,2095,image-keyboard-response,7
true,19,1,2,2,false,d,true,false,0.0-2.0-0.70-0.633-3.633,0,0,0,90,false,stim,false,0,827,1,0,2,83476,WMM1,1626919,false,false,2098,image-keyboard-response,8
true,19,2,2,2,true,d,false,true,0.0-2.0-0.70-0.634-3.634,0,0,0,68,false,stim,false,0,735,1,0,2,83476,WMM1,1629196,false,false,2101,image-keyboard-response,9
true,19,0,2,1,false,z,false,false,0.0-2.0-0.70-0.635-3.635,0,0,0,81,false,stim,true,0,1796,1,0,0,83476,WMM1,1632528,false,false,2104,image-keyboard-response,10
true,19,0,2,0,true,q,false,true,0.0-2.0-0.70-0.636-3.636,0,0,0,81,false,stim,false,1,671,1,0,1,83476,WMM1,1634724,false,false,2107,image-keyboard-response,11
true,19,1,2,1,true,z,false,true,0.0-2.0-0.70-0.637-3.637,0,0,0,90,false,stim,false,0,1929,1,0,0,83476,WMM1,1638183,false,false,2110,image-keyboard-response,12
true,19,0,2,0,true,q,false,true,0.0-2.0-0.70-0.638-3.638,0,0,0,81,false,stim,false,1,457,1,0,1,83476,WMM1,1640175,false,false,2113,image-keyboard-response,13
