answered,blockNum,choice,condition,corResp,correct,correct_response,explo,fb,internal_node_id,isStable_1,isStable_2,isStable_3,key_press,newBlock,part,persev,persevResp,rt,sessNum,stableAS,stimulus,subject,task,time_elapsed,training,trap,trial_index,trial_type,trialsInBlock
true,1,0,0,2,false,d,true,false,0.0-2.0-0.0-0.0-3.0,0,0,0,81,true,stim,false,-1,904,3,0,2,85784,WMM2,69854,false,false,82,image-keyboard-response,1
true,1,0,0,0,true,q,false,true,0.0-2.0-0.0-0.1-3.1,0,0,0,81,false,stim,false,-1,538,3,0,0,85784,WMM2,71896,false,false,85,image-keyboard-response,2
true,1,1,0,2,false,d,true,false,0.0-2.0-0.0-0.2-3.2,0,0,0,90,false,stim,false,-1,757,3,0,2,85784,WMM2,74158,false,false,88,image-keyboard-response,3
true,1,0,0,0,true,q,false,true,0.0-2.0-0.0-0.3-3.3,0,0,0,81,false,stim,false,-1,1076,3,0,1,85784,WMM2,76738,false,false,91,image-keyboard-response,4
true,1,0,0,0,true,q,false,false,0.0-2.0-0.0-0.4-3.4,0,0,0,81,false,stim,false,-1,650,3,0,0,85784,WMM2,78891,false,true,94,image-keyboard-response,5
true,1,0,0,0,true,q,false,true,0.0-2.0-0.0-0.5-3.5,0,0,0,81,false,stim,false,-1,490,3,0,0,85784,WMM2,80886,false,false,97,image-keyboard-response,6
true,1,0,0,0,true,q,false,true,0.0-2.0-0.0-0.6-3.6,0,0,0,81,false,stim,false,-1,726,3,0,1,85784,WMM2,83118,false,false,100,image-keyboard-response,7
true,1,1,0,2,false,d,true,false,0.0-2.0-0.0-0.7-3.7,0,0,0,90,false,stim,false,-1,1000,3,0,2,85784,WMM2,85621,false,false,103,image-keyboard-response,8
true,1,0,0,0,true,q,false,true,0.0-2.0-0.0-0.8-3.8,0,0,0,81,false,stim,false,-1,587,3,0,1,85784,WMM2,87714,false,false,106,image-keyboard-response,9
true,1,0,0,0,true,q,false,true,0.0-2.0-0.1-0.9-3.9,0,0,0,81,false,stim,false,-1,532,3,0,0,85784,WMM2,89750,false,false,109,image-keyboard-response,10
true,1,0,0,0,true,q,false,true,0.0-2.0-0.1-0.10-3.10,0,0,0,81,false,stim,false,-1,885,3,0,0,85784,WMM2,92139,false,false,112,image-keyboard-response,11
true,1,2,0,2,true,d,false,true,0.0-2.0-0.1-0.11-3.11,0,0,0,68,false,stim,false,-1,564,3,0,2,85784,WMM2,94208,false,false,115,image-keyboard-response,12
true,1,0,0,0,true,q,false,false,0.0-2.0-0.1-0.12-3.12,0,0,0,81,false,stim,false,-1,722,3,0,1,85784,WMM2,96432,false,true,118,image-keyboard-response,13
true,1,2,0,2,true,d,false,true,0.0-2.0-0.1-0.13-3.13,0,0,0,68,false,stim,false,-1,764,3,0,2,85784,WMM2,98698,false,false,121,image-keyboard-response,14
true,1,2,0,2,true,d,false,true,0.0-2.0-0.1-0.14-3.14,0,0,0,68,false,stim,false,-1,826,3,0,2,85784,WMM2,101026,false,false,124,image-keyboard-response,15
true,1,0,0,0,true,q,false,true,0.0-2.0-0.1-0.15-3.15,0,0,0,81,false,stim,false,-1,728,3,0,1,85784,WMM2,103257,false,false,127,image-keyboard-response,16
true,1,0,0,0,true,q,false,true,0.0-2.0-0.1-0.16-3.16,0,0,0,81,false,stim,false,-1,524,3,0,1,85784,WMM2,105284,false,false,130,image-keyboard-response,17
true,1,0,0,0,true,q,false,true,0.0-2.0-0.1-0.17-3.17,0,0,0,81,false,stim,false,-1,654,3,0,0,85784,WMM2,107442,false,false,133,image-keyboard-response,18
true,1,0,0,0,true,q,false,true,0.0-2.0-0.2-0.18-3.18,0,0,0,81,false,stim,false,-1,728,3,0,0,85784,WMM2,109675,false,false,136,image-keyboard-response,19
true,1,0,0,0,true,q,false,true,0.0-2.0-0.2-0.19-3.19,0,0,0,81,false,stim,false,-1,1175,3,0,1,85784,WMM2,112354,false,false,139,image-keyboard-response,20
true,1,2,0,2,true,d,false,true,0.0-2.0-0.2-0.20-3.20,0,0,0,68,false,stim,false,-1,766,3,1,2,85784,WMM2,114625,false,false,142,image-keyboard-response,21
true,1,0,0,0,true,q,false,true,0.0-2.0-0.2-0.21-3.21,0,0,0,81,false,stim,false,-1,630,3,0,0,85784,WMM2,116758,false,false,145,image-keyboard-response,22
true,1,0,0,0,true,q,false,true,0.0-2.0-0.2-0.22-3.22,0,0,0,81,false,stim,false,-1,821,3,0,1,85784,WMM2,119083,false,false,148,image-keyboard-response,23
true,1,0,0,0,true,q,false,true,0.0-2.0-0.2-0.23-3.23,0,0,0,81,false,stim,false,-1,678,3,0,0,85784,WMM2,121265,false,false,151,image-keyboard-response,24
true,1,2,0,2,true,d,false,true,0.0-2.0-0.2-0.24-3.24,0,0,0,68,false,stim,false,-1,872,3,1,2,85784,WMM2,123642,false,false,154,image-keyboard-response,25
true,1,0,0,0,true,q,false,true,0.0-2.0-0.2-0.25-3.25,0,0,0,81,false,stim,false,-1,878,3,0,1,85784,WMM2,126027,false,false,157,image-keyboard-response,26
true,1,2,0,2,true,d,false,true,0.0-2.0-0.2-0.26-3.26,0,0,0,68,false,stim,false,-1,1060,3,1,2,85784,WMM2,128598,false,false,160,image-keyboard-response,27
true,1,0,0,0,true,q,false,true,0.0-2.0-0.3-0.27-3.27,0,0,0,81,false,stim,false,-1,682,3,0,1,85784,WMM2,130785,false,false,163,image-keyboard-response,28
true,1,2,0,2,true,d,false,true,0.0-2.0-0.3-0.28-3.28,0,0,0,68,false,stim,false,-1,598,3,1,2,85784,WMM2,132888,false,false,166,image-keyboard-response,29
true,1,0,0,0,true,q,false,true,0.0-2.0-0.3-0.29-3.29,0,0,0,81,false,stim,false,-1,570,3,0,1,85784,WMM2,134962,false,false,169,image-keyboard-response,30
true,2,0,1,1,false,z,false,true,0.0-2.0-0.3-0.30-3.30,0,0,1,81,true,stim,true,0,498,3,0,0,85784,WMM2,136966,false,true,172,image-keyboard-response,1
true,2,0,1,1,false,z,false,true,0.0-2.0-0.3-0.31-3.31,0,0,1,81,false,stim,true,0,538,3,0,1,85784,WMM2,139007,false,true,175,image-keyboard-response,2
true,2,0,1,1,false,z,false,false,0.0-2.0-0.3-0.32-3.32,0,0,1,81,false,stim,true,0,573,3,0,0,85784,WMM2,141084,false,false,178,image-keyboard-response,3
true,2,0,1,1,false,z,false,false,0.0-2.0-0.3-0.33-3.33,0,0,1,81,false,stim,true,0,500,3,0,0,85784,WMM2,143086,false,false,181,image-keyboard-response,4
true,2,2,1,2,true,d,false,true,0.0-2.0-0.3-0.34-3.34,0,0,1,68,false,stim,false,2,667,3,1,2,85784,WMM2,145256,false,false,184,image-keyboard-response,5
true,2,2,1,2,true,d,false,true,0.0-2.0-0.3-0.35-3.35,0,0,1,68,false,stim,false,2,766,3,1,2,85784,WMM2,147529,false,false,187,image-keyboard-response,6
true,2,2,1,2,true,d,false,true,0.0-2.0-0.4-0.36-3.36,0,0,1,68,false,stim,false,2,761,3,1,2,85784,WMM2,149796,false,false,190,image-keyboard-response,7
true,2,0,1,1,false,z,false,false,0.0-2.0-0.4-0.37-3.37,0,0,1,81,false,stim,true,0,672,3,0,1,85784,WMM2,151974,false,false,193,image-keyboard-response,8
true,2,1,1,1,true,z,false,true,0.0-2.0-0.4-0.38-3.38,0,0,1,90,false,stim,false,0,920,3,0,0,85784,WMM2,154400,false,false,196,image-keyboard-response,9
true,2,0,1,1,false,z,false,false,0.0-2.0-0.4-0.39-3.39,0,0,1,81,false,stim,true,0,745,3,0,1,85784,WMM2,156655,false,false,199,image-keyboard-response,10
true,2,1,1,1,true,z,false,true,0.0-2.0-0.4-0.40-3.40,0,0,1,90,false,stim,false,0,560,3,0,1,85784,WMM2,158720,false,false,202,image-keyboard-response,11
true,2,2,1,2,true,d,false,false,0.0-2.0-0.4-0.41-3.41,0,0,1,68,false,stim,false,2,575,3,1,2,85784,WMM2,160800,false,true,205,image-keyboard-response,12
true,2,1,1,1,true,z,false,true,0.0-2.0-0.4-0.42-3.42,0,0,1,90,false,stim,false,0,617,3,0,0,85784,WMM2,162921,false,false,208,image-keyboard-response,13
true,2,1,1,1,true,z,false,true,0.0-2.0-0.4-0.43-3.43,0,0,1,90,false,stim,false,0,529,3,0,0,85784,WMM2,164952,false,false,211,image-keyboard-response,14
true,2,2,1,2,true,d,false,true,0.0-2.0-0.4-0.44-3.44,0,0,1,68,false,stim,false,2,641,3,1,2,85784,WMM2,167099,false,false,214,image-keyboard-response,15
true,2,2,1,2,true,d,false,true,0.0-2.0-0.5-0.45-3.45,0,0,1,68,false,stim,false,2,522,3,1,2,85784,WMM2,169125,false,false,217,image-keyboard-response,16
true,2,2,1,2,true,d,false,true,0.0-2.0-0.5-0.46-3.46,0,0,1,68,false,stim,false,2,544,3,1,2,85784,WMM2,171174,false,false,220,image-keyboard-response,17
true,2,2,1,2,true,d,false,true,0.0-2.0-0.5-0.47-3.47,0,0,1,68,false,stim,false,2,465,3,1,2,85784,WMM2,173142,false,false,223,image-keyboard-response,18
true,2,1,1,1,true,z,false,true,0.0-2.0-0.5-0.48-3.48,0,0,1,90,false,stim,false,0,681,3,0,1,85784,WMM2,175326,false,false,226,image-keyboard-response,19
true,2,1,1,1,true,z,false,true,0.0-2.0-0.5-0.49-3.49,0,0,1,90,false,stim,false,0,439,3,0,1,85784,WMM2,177268,false,false,229,image-keyboard-response,20
true,2,1,1,1,true,z,false,true,0.0-2.0-0.5-0.50-3.50,0,0,1,90,false,stim,false,0,962,3,0,0,85784,WMM2,179735,false,false,232,image-keyboard-response,21
true,2,1,1,1,true,z,false,true,0.0-2.0-0.5-0.51-3.51,0,0,1,90,false,stim,false,0,574,3,0,0,85784,WMM2,181811,false,false,235,image-keyboard-response,22
true,2,1,1,1,true,z,false,true,0.0-2.0-0.5-0.52-3.52,0,0,1,90,false,stim,false,0,993,3,1,1,85784,WMM2,184307,false,false,238,image-keyboard-response,23
true,2,1,1,1,true,z,false,true,0.0-2.0-0.5-0.53-3.53,0,0,1,90,false,stim,false,0,708,3,0,0,85784,WMM2,186521,false,false,241,image-keyboard-response,24
true,2,1,1,1,true,z,false,true,0.0-2.0-0.6-0.54-3.54,0,0,1,90,false,stim,false,0,454,3,0,0,85784,WMM2,188481,false,false,244,image-keyboard-response,25
true,2,1,1,1,true,z,false,true,0.0-2.0-0.6-0.55-3.55,0,0,1,90,false,stim,false,0,712,3,1,1,85784,WMM2,190698,false,false,247,image-keyboard-response,26
true,2,1,1,1,true,z,false,true,0.0-2.0-0.6-0.56-3.56,0,0,1,90,false,stim,false,0,598,3,1,1,85784,WMM2,192805,false,false,250,image-keyboard-response,27
true,2,2,1,2,true,d,false,true,0.0-2.0-0.6-0.57-3.57,0,0,1,68,false,stim,false,2,962,3,1,2,85784,WMM2,195274,false,false,253,image-keyboard-response,28
true,2,1,1,1,true,z,false,true,0.0-2.0-0.6-0.58-3.58,0,0,1,90,false,stim,false,0,681,3,0,0,85784,WMM2,197459,false,false,256,image-keyboard-response,29
true,2,2,1,2,true,d,false,true,0.0-2.0-0.6-0.59-3.59,0,0,1,68,false,stim,false,2,1078,3,1,2,85784,WMM2,200040,false,false,259,image-keyboard-response,30
true,3,1,4,1,true,z,false,true,0.0-2.0-0.6-0.60-3.60,0,1,1,90,true,stim,false,1,628,3,1,1,85784,WMM2,202172,false,false,262,image-keyboard-response,1
true,3,1,4,1,true,z,false,true,0.0-2.0-0.6-0.61-3.61,0,1,1,90,false,stim,false,1,831,3,0,0,85784,WMM2,204506,false,false,265,image-keyboard-response,2
true,3,2,4,2,true,d,false,true,0.0-2.0-0.6-0.62-3.62,0,1,1,68,false,stim,false,2,1443,3,1,2,85784,WMM2,207453,false,false,268,image-keyboard-response,3
true,3,2,4,2,true,d,false,true,0.0-2.0-0.7-0.63-3.63,0,1,1,68,false,stim,false,2,652,3,1,2,85784,WMM2,209612,false,false,271,image-keyboard-response,4
true,3,1,4,1,true,z,false,true,0.0-2.0-0.7-0.64-3.64,0,1,1,90,false,stim,false,1,767,3,1,1,85784,WMM2,211882,false,false,274,image-keyboard-response,5
true,3,1,4,1,true,z,false,true,0.0-2.0-0.7-0.65-3.65,0,1,1,90,false,stim,false,1,812,3,0,0,85784,WMM2,214198,false,false,277,image-keyboard-response,6
true,3,2,4,2,true,d,false,true,0.0-2.0-0.7-0.66-3.66,0,1,1,68,false,stim,false,2,681,3,1,2,85784,WMM2,216384,false,false,280,image-keyboard-response,7
true,3,1,4,1,true,z,false,true,0.0-2.0-0.7-0.67-3.67,0,1,1,90,false,stim,false,1,605,3,1,1,85784,WMM2,218491,false,false,283,image-keyboard-response,8
true,3,1,4,1,true,z,false,true,0.0-2.0-0.7-0.68-3.68,0,1,1,90,false,stim,false,1,762,3,0,0,85784,WMM2,220756,false,false,286,image-keyboard-response,9
true,3,1,4,1,true,z,false,true,0.0-2.0-0.7-0.69-3.69,0,1,1,90,false,stim,false,1,628,3,1,1,85784,WMM2,222890,false,false,289,image-keyboard-response,10
true,3,2,4,2,true,d,false,false,0.0-2.0-0.7-0.70-3.70,0,1,1,68,false,stim,false,2,984,3,1,2,85784,WMM2,225378,false,true,292,image-keyboard-response,11
true,3,1,4,1,true,z,false,true,0.0-2.0-0.7-0.71-3.71,0,1,1,90,false,stim,false,1,532,3,0,0,85784,WMM2,227416,false,false,295,image-keyboard-response,12
true,3,2,4,2,true,d,false,false,0.0-2.0-0.8-0.72-3.72,0,1,1,68,false,stim,false,2,660,3,1,2,85784,WMM2,229579,false,true,298,image-keyboard-response,13
true,3,1,4,1,true,z,false,false,0.0-2.0-0.8-0.73-3.73,0,1,1,90,false,stim,false,1,478,3,0,0,85784,WMM2,231569,false,true,301,image-keyboard-response,14
true,3,0,4,2,false,d,true,false,0.0-2.0-0.8-0.74-3.74,0,1,1,81,false,stim,false,2,691,3,1,2,85784,WMM2,233769,false,false,304,image-keyboard-response,15
true,3,1,4,1,true,z,false,false,0.0-2.0-0.8-0.75-3.75,0,1,1,90,false,stim,false,1,602,3,1,1,85784,WMM2,235875,false,true,307,image-keyboard-response,16
true,3,1,4,2,false,d,true,false,0.0-2.0-0.8-0.76-3.76,0,1,1,90,false,stim,false,2,965,3,1,2,85784,WMM2,238345,false,false,310,image-keyboard-response,17
true,3,1,4,1,true,z,false,true,0.0-2.0-0.8-0.77-3.77,0,1,1,90,false,stim,false,1,1090,3,1,1,85784,WMM2,240940,false,false,313,image-keyboard-response,18
true,3,1,4,1,true,z,false,false,0.0-2.0-0.8-0.78-3.78,0,1,1,90,false,stim,false,1,649,3,1,1,85784,WMM2,243096,false,true,316,image-keyboard-response,19
true,3,1,4,1,true,z,false,true,0.0-2.0-0.8-0.79-3.79,0,1,1,90,false,stim,false,1,894,3,0,0,85784,WMM2,245498,false,false,319,image-keyboard-response,20
true,3,1,4,1,true,z,false,true,0.0-2.0-0.8-0.80-3.80,0,1,1,90,false,stim,false,1,524,3,0,0,85784,WMM2,247528,false,false,322,image-keyboard-response,21
true,3,1,4,1,true,z,false,false,0.0-2.0-0.9-0.81-3.81,0,1,1,90,false,stim,false,1,475,3,0,0,85784,WMM2,249510,false,true,325,image-keyboard-response,22
true,3,1,4,1,true,z,false,true,0.0-2.0-0.9-0.82-3.82,0,1,1,90,false,stim,false,1,574,3,0,0,85784,WMM2,251590,false,false,328,image-keyboard-response,23
true,3,1,4,1,true,z,false,true,0.0-2.0-0.9-0.83-3.83,0,1,1,90,false,stim,false,1,611,3,1,1,85784,WMM2,253709,false,false,331,image-keyboard-response,24
true,3,2,4,2,true,d,false,true,0.0-2.0-0.9-0.84-3.84,0,1,1,68,false,stim,false,2,778,3,1,2,85784,WMM2,255995,false,false,334,image-keyboard-response,25
true,3,1,4,1,true,z,false,true,0.0-2.0-0.9-0.85-3.85,0,1,1,90,false,stim,false,1,735,3,0,0,85784,WMM2,258237,false,false,337,image-keyboard-response,26
true,3,1,4,1,true,z,false,true,0.0-2.0-0.9-0.86-3.86,0,1,1,90,false,stim,false,1,452,3,1,1,85784,WMM2,260195,false,false,340,image-keyboard-response,27
true,3,1,4,1,true,z,false,true,0.0-2.0-0.9-0.87-3.87,0,1,1,90,false,stim,false,1,486,3,1,1,85784,WMM2,262189,false,false,343,image-keyboard-response,28
true,3,2,4,2,true,d,false,false,0.0-2.0-0.9-0.88-3.88,0,1,1,68,false,stim,false,2,578,3,1,2,85784,WMM2,264272,false,true,346,image-keyboard-response,29
true,3,2,4,2,true,d,false,true,0.0-2.0-0.9-0.89-3.89,0,1,1,68,false,stim,false,2,522,3,1,2,85784,WMM2,266299,false,false,349,image-keyboard-response,30
true,3,1,4,1,true,z,false,false,0.0-2.0-0.10-0.90-3.90,0,1,1,90,false,stim,false,1,623,3,1,1,85784,WMM2,268427,false,true,352,image-keyboard-response,31
true,3,1,4,1,true,z,false,true,0.0-2.0-0.10-0.91-3.91,0,1,1,90,false,stim,false,1,407,3,1,1,85784,WMM2,270338,false,false,355,image-keyboard-response,32
true,3,2,4,2,true,d,false,true,0.0-2.0-0.10-0.92-3.92,0,1,1,68,false,stim,false,2,665,3,1,2,85784,WMM2,272510,false,false,358,image-keyboard-response,33
true,3,1,4,1,true,z,false,false,0.0-2.0-0.10-0.93-3.93,0,1,1,90,false,stim,false,1,696,3,0,0,85784,WMM2,274710,false,true,361,image-keyboard-response,34
true,3,1,4,1,true,z,false,true,0.0-2.0-0.10-0.94-3.94,0,1,1,90,false,stim,false,1,557,3,0,0,85784,WMM2,276775,false,false,364,image-keyboard-response,35
true,3,2,4,2,true,d,false,true,0.0-2.0-0.10-0.95-3.95,0,1,1,68,false,stim,false,2,759,3,1,2,85784,WMM2,279039,false,false,367,image-keyboard-response,36
true,3,1,4,1,true,z,false,true,0.0-2.0-0.10-0.96-3.96,0,1,1,90,false,stim,false,1,625,3,1,1,85784,WMM2,281172,false,false,370,image-keyboard-response,37
true,3,2,4,2,true,d,false,true,0.0-2.0-0.10-0.97-3.97,0,1,1,68,false,stim,false,2,713,3,1,2,85784,WMM2,283389,false,false,373,image-keyboard-response,38
true,3,1,4,1,true,z,false,true,0.0-2.0-0.10-0.98-3.98,0,1,1,90,false,stim,false,1,603,3,0,0,85784,WMM2,285493,false,false,376,image-keyboard-response,39
true,4,1,3,0,false,q,false,false,0.0-2.0-0.11-0.99-3.99,0,1,1,90,true,stim,true,1,465,3,0,0,85784,WMM2,287462,false,false,379,image-keyboard-response,1
true,4,1,3,0,false,q,false,false,0.0-2.0-0.11-0.100-3.100,0,1,1,90,false,stim,true,1,574,3,0,0,85784,WMM2,289542,false,false,382,image-keyboard-response,2
true,4,2,3,2,true,d,false,true,0.0-2.0-0.11-0.101-3.101,0,1,1,68,false,stim,false,2,786,3,1,2,85784,WMM2,291832,false,false,385,image-keyboard-response,3
true,4,2,3,0,false,q,true,false,0.0-2.0-0.11-0.102-3.102,0,1,1,68,false,stim,false,1,961,3,0,0,85784,WMM2,294298,false,false,388,image-keyboard-response,4
true,4,1,3,1,true,z,false,true,0.0-2.0-0.11-0.103-3.103,0,1,1,90,false,stim,false,1,645,3,1,1,85784,WMM2,296446,false,false,391,image-keyboard-response,5
true,4,1,3,1,true,z,false,true,0.0-2.0-0.11-0.104-3.104,0,1,1,90,false,stim,false,1,612,3,1,1,85784,WMM2,298561,false,false,394,image-keyboard-response,6
true,4,2,3,2,true,d,false,true,0.0-2.0-0.11-0.105-3.105,0,1,1,68,false,stim,false,2,727,3,1,2,85784,WMM2,300795,false,false,397,image-keyboard-response,7
true,4,1,3,1,true,z,false,true,0.0-2.0-0.11-0.106-3.106,0,1,1,90,false,stim,false,1,539,3,1,1,85784,WMM2,302841,false,false,400,image-keyboard-response,8
true,4,2,3,2,true,d,false,false,0.0-2.0-0.11-0.107-3.107,0,1,1,68,false,stim,false,2,1160,3,1,2,85784,WMM2,305508,false,true,403,image-keyboard-response,9
true,4,1,3,1,true,z,false,true,0.0-2.0-0.12-0.108-3.108,0,1,1,90,false,stim,false,1,675,3,1,1,85784,WMM2,307689,false,false,406,image-keyboard-response,10
true,4,1,3,1,true,z,false,true,0.0-2.0-0.12-0.109-3.109,0,1,1,90,false,stim,false,1,876,3,1,1,85784,WMM2,310067,false,false,409,image-keyboard-response,11
true,4,2,3,2,true,d,false,false,0.0-2.0-0.12-0.110-3.110,0,1,1,68,false,stim,false,2,1408,3,1,2,85784,WMM2,312984,false,true,412,image-keyboard-response,12
true,4,2,3,0,false,q,true,false,0.0-2.0-0.12-0.111-3.111,0,1,1,68,false,stim,false,1,2193,3,0,0,85784,WMM2,316681,false,false,415,image-keyboard-response,13
true,4,2,3,2,true,d,false,true,0.0-2.0-0.12-0.112-3.112,0,1,1,68,false,stim,false,2,670,3,1,2,85784,WMM2,318858,false,false,418,image-keyboard-response,14
true,4,0,3,0,true,q,false,true,0.0-2.0-0.12-0.113-3.113,0,1,1,81,false,stim,false,1,713,3,0,0,85784,WMM2,321080,false,false,421,image-keyboard-response,15
true,4,2,3,2,true,d,false,true,0.0-2.0-0.12-0.114-3.114,0,1,1,68,false,stim,false,2,711,3,1,2,85784,WMM2,323296,false,false,424,image-keyboard-response,16
true,4,1,3,1,true,z,false,false,0.0-2.0-0.12-0.115-3.115,0,1,1,90,false,stim,false,1,575,3,1,1,85784,WMM2,325375,false,true,427,image-keyboard-response,17
true,4,0,3,0,true,q,false,true,0.0-2.0-0.12-0.116-3.116,0,1,1,81,false,stim,false,1,787,3,0,0,85784,WMM2,327667,false,false,430,image-keyboard-response,18
true,4,0,3,0,true,q,false,true,0.0-2.0-0.13-0.117-3.117,0,1,1,81,false,stim,false,1,531,3,0,0,85784,WMM2,329704,false,false,433,image-keyboard-response,19
true,4,2,3,2,true,d,false,true,0.0-2.0-0.13-0.118-3.118,0,1,1,68,false,stim,false,2,935,3,1,2,85784,WMM2,332143,false,false,436,image-keyboard-response,20
true,4,2,3,2,true,d,false,true,0.0-2.0-0.13-0.119-3.119,0,1,1,68,false,stim,false,2,628,3,1,2,85784,WMM2,334276,false,false,439,image-keyboard-response,21
true,4,1,3,1,true,z,false,true,0.0-2.0-0.13-0.120-3.120,0,1,1,90,false,stim,false,1,449,3,0,1,85784,WMM2,336230,false,false,442,image-keyboard-response,22
true,4,2,3,2,true,d,false,true,0.0-2.0-0.13-0.121-3.121,0,1,1,68,false,stim,false,2,666,3,1,2,85784,WMM2,338405,false,false,445,image-keyboard-response,23
true,4,0,3,0,true,q,false,true,0.0-2.0-0.13-0.122-3.122,0,1,1,81,false,stim,false,1,691,3,1,0,85784,WMM2,340602,false,false,448,image-keyboard-response,24
true,4,1,3,1,true,z,false,true,0.0-2.0-0.13-0.123-3.123,0,1,1,90,false,stim,false,1,473,3,0,1,85784,WMM2,342579,false,false,451,image-keyboard-response,25
true,4,0,3,0,true,q,false,true,0.0-2.0-0.13-0.124-3.124,0,1,1,81,false,stim,false,1,609,3,1,0,85784,WMM2,344692,false,false,454,image-keyboard-response,26
true,4,1,3,1,true,z,false,true,0.0-2.0-0.13-0.125-3.125,0,1,1,90,false,stim,false,1,622,3,0,1,85784,WMM2,346817,false,false,457,image-keyboard-response,27
true,4,0,3,0,true,q,false,true,0.0-2.0-0.14-0.126-3.126,0,1,1,81,false,stim,false,1,719,3,1,0,85784,WMM2,349038,false,false,460,image-keyboard-response,28
true,4,2,3,2,true,d,false,true,0.0-2.0-0.14-0.127-3.127,0,1,1,68,false,stim,false,2,767,3,1,2,85784,WMM2,351307,false,false,463,image-keyboard-response,29
true,4,1,3,1,true,z,false,true,0.0-2.0-0.14-0.128-3.128,0,1,1,90,false,stim,false,1,932,3,0,1,85784,WMM2,353744,false,false,466,image-keyboard-response,30
true,5,2,4,2,true,d,false,true,0.0-2.0-0.14-0.129-3.129,1,0,1,68,true,stim,false,2,623,3,1,2,85784,WMM2,355873,false,false,469,image-keyboard-response,1
true,5,0,4,0,true,q,false,true,0.0-2.0-0.14-0.130-3.130,1,0,1,81,false,stim,false,0,770,3,1,0,85784,WMM2,358149,false,false,472,image-keyboard-response,2
true,5,1,4,1,true,z,false,true,0.0-2.0-0.14-0.131-3.131,1,0,1,90,false,stim,false,1,770,3,0,1,85784,WMM2,360427,false,false,475,image-keyboard-response,3
true,5,0,4,0,true,q,false,true,0.0-2.0-0.14-0.132-3.132,1,0,1,81,false,stim,false,0,957,3,1,0,85784,WMM2,362888,false,false,478,image-keyboard-response,4
true,5,1,4,1,true,z,false,true,0.0-2.0-0.14-0.133-3.133,1,0,1,90,false,stim,false,1,612,3,0,1,85784,WMM2,365006,false,false,481,image-keyboard-response,5
true,5,2,4,2,true,d,false,true,0.0-2.0-0.14-0.134-3.134,1,0,1,68,false,stim,false,2,722,3,1,2,85784,WMM2,367233,false,false,484,image-keyboard-response,6
true,5,1,4,1,true,z,false,true,0.0-2.0-0.15-0.135-3.135,1,0,1,90,false,stim,false,1,1072,3,0,1,85784,WMM2,369808,false,false,487,image-keyboard-response,7
true,5,0,4,0,true,q,false,true,0.0-2.0-0.15-0.136-3.136,1,0,1,81,false,stim,false,0,563,3,1,0,85784,WMM2,371875,false,false,490,image-keyboard-response,8
true,5,0,4,0,true,q,false,true,0.0-2.0-0.15-0.137-3.137,1,0,1,81,false,stim,false,0,550,3,1,0,85784,WMM2,373928,false,false,493,image-keyboard-response,9
true,5,2,4,2,true,d,false,true,0.0-2.0-0.15-0.138-3.138,1,0,1,68,false,stim,false,2,856,3,1,2,85784,WMM2,376288,false,false,496,image-keyboard-response,10
true,5,1,4,1,true,z,false,true,0.0-2.0-0.15-0.139-3.139,1,0,1,90,false,stim,false,1,906,3,0,1,85784,WMM2,378698,false,false,499,image-keyboard-response,11
true,5,0,4,0,true,q,false,true,0.0-2.0-0.15-0.140-3.140,1,0,1,81,false,stim,false,0,589,3,1,0,85784,WMM2,380799,false,false,502,image-keyboard-response,12
true,5,1,4,1,true,z,false,false,0.0-2.0-0.15-0.141-3.141,1,0,1,90,false,stim,false,1,523,3,0,1,85784,WMM2,382826,false,true,505,image-keyboard-response,13
true,5,2,4,2,true,d,false,true,0.0-2.0-0.15-0.142-3.142,1,0,1,68,false,stim,false,2,712,3,1,2,85784,WMM2,385049,false,false,508,image-keyboard-response,14
true,5,2,4,2,true,d,false,true,0.0-2.0-0.15-0.143-3.143,1,0,1,68,false,stim,false,2,909,3,1,2,85784,WMM2,387465,false,false,511,image-keyboard-response,15
true,5,2,4,2,true,d,false,true,0.0-2.0-0.16-0.144-3.144,1,0,1,68,false,stim,false,2,575,3,1,2,85784,WMM2,389545,false,false,514,image-keyboard-response,16
true,5,0,4,0,true,q,false,true,0.0-2.0-0.16-0.145-3.145,1,0,1,81,false,stim,false,0,614,3,1,0,85784,WMM2,391668,false,false,517,image-keyboard-response,17
true,5,2,4,2,true,d,false,true,0.0-2.0-0.16-0.146-3.146,1,0,1,68,false,stim,false,2,659,3,1,2,85784,WMM2,393832,false,false,520,image-keyboard-response,18
true,5,0,4,0,true,q,false,true,0.0-2.0-0.16-0.147-3.147,1,0,1,81,false,stim,false,0,642,3,1,0,85784,WMM2,395977,false,false,523,image-keyboard-response,19
true,5,1,4,1,true,z,false,true,0.0-2.0-0.16-0.148-3.148,1,0,1,90,false,stim,false,1,872,3,0,1,85784,WMM2,398351,false,false,526,image-keyboard-response,20
true,5,1,4,1,true,z,false,true,0.0-2.0-0.16-0.149-3.149,1,0,1,90,false,stim,false,1,459,3,1,1,85784,WMM2,400318,false,false,529,image-keyboard-response,21
true,5,1,4,1,true,z,false,true,0.0-2.0-0.16-0.150-3.150,1,0,1,90,false,stim,false,1,395,3,1,1,85784,WMM2,402218,false,false,532,image-keyboard-response,22
true,5,2,4,2,true,d,false,true,0.0-2.0-0.16-0.151-3.151,1,0,1,68,false,stim,false,2,616,3,0,2,85784,WMM2,404342,false,false,535,image-keyboard-response,23
true,5,0,4,0,true,q,false,true,0.0-2.0-0.16-0.152-3.152,1,0,1,81,false,stim,false,0,616,3,1,0,85784,WMM2,406464,false,false,538,image-keyboard-response,24
true,5,2,4,2,true,d,false,true,0.0-2.0-0.17-0.153-3.153,1,0,1,68,false,stim,false,2,800,3,0,2,85784,WMM2,408767,false,false,541,image-keyboard-response,25
true,5,0,4,0,true,q,false,true,0.0-2.0-0.17-0.154-3.154,1,0,1,81,false,stim,false,0,726,3,1,0,85784,WMM2,410997,false,false,544,image-keyboard-response,26
true,5,2,4,2,true,d,false,true,0.0-2.0-0.17-0.155-3.155,1,0,1,68,false,stim,false,2,704,3,0,2,85784,WMM2,413206,false,false,547,image-keyboard-response,27
true,5,1,4,1,true,z,false,true,0.0-2.0-0.17-0.156-3.156,1,0,1,90,false,stim,false,1,1073,3,1,1,85784,WMM2,415784,false,false,550,image-keyboard-response,28
true,5,1,4,1,true,z,false,true,0.0-2.0-0.17-0.157-3.157,1,0,1,90,false,stim,false,1,807,3,1,1,85784,WMM2,418093,false,false,553,image-keyboard-response,29
true,5,1,4,1,true,z,false,true,0.0-2.0-0.17-0.158-3.158,1,0,1,90,false,stim,false,1,466,3,1,1,85784,WMM2,420060,false,false,556,image-keyboard-response,30
true,6,0,2,0,true,q,false,true,0.0-2.0-0.17-0.159-3.159,1,1,0,81,true,stim,false,0,733,3,1,0,85784,WMM2,422297,false,false,559,image-keyboard-response,1
true,6,2,2,0,false,q,false,false,0.0-2.0-0.17-0.160-3.160,1,1,0,68,false,stim,true,2,540,3,0,2,85784,WMM2,424342,false,false,562,image-keyboard-response,2
true,6,0,2,0,true,q,false,true,0.0-2.0-0.17-0.161-3.161,1,1,0,81,false,stim,false,0,821,3,1,0,85784,WMM2,426667,false,false,565,image-keyboard-response,3
true,6,0,2,0,true,q,false,true,0.0-2.0-0.18-0.162-3.162,1,1,0,81,false,stim,false,0,498,3,1,0,85784,WMM2,428667,false,false,568,image-keyboard-response,4
true,6,2,2,0,false,q,false,false,0.0-2.0-0.18-0.163-3.163,1,1,0,68,false,stim,true,2,571,3,0,2,85784,WMM2,430747,false,false,571,image-keyboard-response,5
true,6,1,2,1,true,z,false,true,0.0-2.0-0.18-0.164-3.164,1,1,0,90,false,stim,false,1,803,3,1,1,85784,WMM2,433052,false,false,574,image-keyboard-response,6
true,6,1,2,1,true,z,false,true,0.0-2.0-0.18-0.165-3.165,1,1,0,90,false,stim,false,1,442,3,1,1,85784,WMM2,434997,false,false,577,image-keyboard-response,7
true,6,0,2,0,true,q,false,true,0.0-2.0-0.18-0.166-3.166,1,1,0,81,false,stim,false,0,736,3,1,0,85784,WMM2,437234,false,false,580,image-keyboard-response,8
true,6,0,2,0,true,q,false,true,0.0-2.0-0.18-0.167-3.167,1,1,0,81,false,stim,false,2,615,3,0,2,85784,WMM2,439355,false,false,583,image-keyboard-response,9
true,6,1,2,1,true,z,false,true,0.0-2.0-0.18-0.168-3.168,1,1,0,90,false,stim,false,1,559,3,1,1,85784,WMM2,441419,false,false,586,image-keyboard-response,10
true,6,0,2,0,true,q,false,true,0.0-2.0-0.18-0.169-3.169,1,1,0,81,false,stim,false,0,581,3,1,0,85784,WMM2,443505,false,false,589,image-keyboard-response,11
true,6,0,2,0,true,q,false,true,0.0-2.0-0.18-0.170-3.170,1,1,0,81,false,stim,false,2,474,3,0,2,85784,WMM2,445488,false,false,592,image-keyboard-response,12
true,6,1,2,1,true,z,false,true,0.0-2.0-0.19-0.171-3.171,1,1,0,90,false,stim,false,1,593,3,1,1,85784,WMM2,447586,false,false,595,image-keyboard-response,13
true,6,0,2,0,true,q,false,true,0.0-2.0-0.19-0.172-3.172,1,1,0,81,false,stim,false,0,672,3,1,0,85784,WMM2,449764,false,false,598,image-keyboard-response,14
true,6,0,2,0,true,q,false,true,0.0-2.0-0.19-0.173-3.173,1,1,0,81,false,stim,false,2,441,3,0,2,85784,WMM2,451712,false,false,601,image-keyboard-response,15
true,6,0,2,0,true,q,false,true,0.0-2.0-0.19-0.174-3.174,1,1,0,81,false,stim,false,0,537,3,1,0,85784,WMM2,453755,false,false,604,image-keyboard-response,16
true,6,0,2,0,true,q,false,true,0.0-2.0-0.19-0.175-3.175,1,1,0,81,false,stim,false,2,460,3,0,2,85784,WMM2,455720,false,false,607,image-keyboard-response,17
true,6,1,2,1,true,z,false,true,0.0-2.0-0.19-0.176-3.176,1,1,0,90,false,stim,false,1,770,3,1,1,85784,WMM2,457993,false,false,610,image-keyboard-response,18
true,6,0,2,0,true,q,false,true,0.0-2.0-0.19-0.177-3.177,1,1,0,81,false,stim,false,2,452,3,0,2,85784,WMM2,459951,false,false,613,image-keyboard-response,19
true,6,0,2,0,true,q,false,true,0.0-2.0-0.19-0.178-3.178,1,1,0,81,false,stim,false,0,505,3,1,0,85784,WMM2,461958,false,false,616,image-keyboard-response,20
true,6,1,2,1,true,z,false,false,0.0-2.0-0.19-0.179-3.179,1,1,0,90,false,stim,false,1,715,3,1,1,85784,WMM2,464180,false,true,619,image-keyboard-response,21
true,6,0,2,0,true,q,false,true,0.0-2.0-0.20-0.180-3.180,1,1,0,81,false,stim,false,2,801,3,1,2,85784,WMM2,466486,false,false,622,image-keyboard-response,22
true,6,0,2,0,true,q,false,true,0.0-2.0-0.20-0.181-3.181,1,1,0,81,false,stim,false,0,943,3,0,0,85784,WMM2,468936,false,false,625,image-keyboard-response,23
true,6,1,2,1,true,z,false,false,0.0-2.0-0.20-0.182-3.182,1,1,0,90,false,stim,false,1,878,3,1,1,85784,WMM2,471319,false,true,628,image-keyboard-response,24
true,6,1,2,1,true,z,false,true,0.0-2.0-0.20-0.183-3.183,1,1,0,90,false,stim,false,1,569,3,1,1,85784,WMM2,473392,false,false,631,image-keyboard-response,25
true,6,0,2,0,true,q,false,true,0.0-2.0-0.20-0.184-3.184,1,1,0,81,false,stim,false,2,493,3,1,2,85784,WMM2,475393,false,false,634,image-keyboard-response,26
true,6,0,2,0,true,q,false,true,0.0-2.0-0.20-0.185-3.185,1,1,0,81,false,stim,false,2,543,3,1,2,85784,WMM2,477439,false,false,637,image-keyboard-response,27
true,6,0,2,0,true,q,false,true,0.0-2.0-0.20-0.186-3.186,1,1,0,81,false,stim,false,0,735,3,0,0,85784,WMM2,479676,false,false,640,image-keyboard-response,28
true,6,0,2,0,true,q,false,true,0.0-2.0-0.20-0.187-3.187,1,1,0,81,false,stim,false,0,527,3,0,0,85784,WMM2,481709,false,false,643,image-keyboard-response,29
true,6,1,2,1,true,z,false,true,0.0-2.0-0.20-0.188-3.188,1,1,0,90,false,stim,false,1,1333,3,1,1,85784,WMM2,484546,false,false,646,image-keyboard-response,30
true,7,0,4,0,true,q,false,true,0.0-2.0-0.21-0.189-3.189,0,1,1,81,true,stim,false,0,625,3,0,0,85784,WMM2,486676,false,false,649,image-keyboard-response,1
true,7,0,4,0,true,q,false,true,0.0-2.0-0.21-0.190-3.190,0,1,1,81,false,stim,false,0,776,3,1,2,85784,WMM2,488960,false,false,652,image-keyboard-response,2
true,7,0,4,0,true,q,false,true,0.0-2.0-0.21-0.191-3.191,0,1,1,81,false,stim,false,0,860,3,0,0,85784,WMM2,491330,false,false,655,image-keyboard-response,3
true,7,1,4,1,true,z,false,true,0.0-2.0-0.21-0.192-3.192,0,1,1,90,false,stim,false,1,939,3,1,1,85784,WMM2,493770,false,false,658,image-keyboard-response,4
true,7,0,4,0,true,q,false,false,0.0-2.0-0.21-0.193-3.193,0,1,1,81,false,stim,false,0,783,3,1,2,85784,WMM2,496058,false,true,661,image-keyboard-response,5
true,7,0,4,0,true,q,false,true,0.0-2.0-0.21-0.194-3.194,0,1,1,81,false,stim,false,0,578,3,1,2,85784,WMM2,498142,false,false,664,image-keyboard-response,6
true,7,1,4,1,true,z,false,true,0.0-2.0-0.21-0.195-3.195,0,1,1,90,false,stim,false,1,625,3,1,1,85784,WMM2,500270,false,false,667,image-keyboard-response,7
true,7,0,4,0,true,q,false,false,0.0-2.0-0.21-0.196-3.196,0,1,1,81,false,stim,false,0,610,3,0,0,85784,WMM2,502388,false,true,670,image-keyboard-response,8
true,7,1,4,1,true,z,false,true,0.0-2.0-0.21-0.197-3.197,0,1,1,90,false,stim,false,1,645,3,1,1,85784,WMM2,504537,false,false,673,image-keyboard-response,9
true,7,1,4,1,true,z,false,true,0.0-2.0-0.22-0.198-3.198,0,1,1,90,false,stim,false,1,707,3,1,1,85784,WMM2,506747,false,false,676,image-keyboard-response,10
true,7,0,4,0,true,q,false,true,0.0-2.0-0.22-0.199-3.199,0,1,1,81,false,stim,false,0,712,3,1,2,85784,WMM2,508968,false,false,679,image-keyboard-response,11
true,7,1,4,1,true,z,false,false,0.0-2.0-0.22-0.200-3.200,0,1,1,90,false,stim,false,1,708,3,1,1,85784,WMM2,511179,false,true,682,image-keyboard-response,12
true,7,0,4,0,true,q,false,true,0.0-2.0-0.22-0.201-3.201,0,1,1,81,false,stim,false,0,555,3,0,0,85784,WMM2,513245,false,false,685,image-keyboard-response,13
true,7,1,4,1,true,z,false,false,0.0-2.0-0.22-0.202-3.202,0,1,1,90,false,stim,false,1,466,3,1,1,85784,WMM2,515214,false,true,688,image-keyboard-response,14
true,7,0,4,0,true,q,false,false,0.0-2.0-0.22-0.203-3.203,0,1,1,81,false,stim,false,0,644,3,1,2,85784,WMM2,517363,false,true,691,image-keyboard-response,15
true,7,0,4,0,true,q,false,true,0.0-2.0-0.22-0.204-3.204,0,1,1,81,false,stim,false,0,577,3,0,0,85784,WMM2,519447,false,false,694,image-keyboard-response,16
true,7,0,4,0,true,q,false,true,0.0-2.0-0.22-0.205-3.205,0,1,1,81,false,stim,false,0,651,3,1,2,85784,WMM2,521604,false,false,697,image-keyboard-response,17
true,7,0,4,0,true,q,false,true,0.0-2.0-0.22-0.206-3.206,0,1,1,81,false,stim,false,0,631,3,0,0,85784,WMM2,523739,false,false,700,image-keyboard-response,18
true,7,0,4,0,true,q,false,true,0.0-2.0-0.23-0.207-3.207,0,1,1,81,false,stim,false,0,515,3,0,0,85784,WMM2,525766,false,false,703,image-keyboard-response,19
true,7,1,4,1,true,z,false,false,0.0-2.0-0.23-0.208-3.208,0,1,1,90,false,stim,false,1,729,3,1,1,85784,WMM2,527998,false,true,706,image-keyboard-response,20
true,7,2,4,1,false,z,true,true,0.0-2.0-0.23-0.209-3.209,0,1,1,68,false,stim,false,1,704,3,1,1,85784,WMM2,530208,false,true,709,image-keyboard-response,21
true,7,0,4,0,true,q,false,false,0.0-2.0-0.23-0.210-3.210,0,1,1,81,false,stim,false,0,607,3,0,0,85784,WMM2,532321,false,true,712,image-keyboard-response,22
true,7,0,4,0,true,q,false,true,0.0-2.0-0.23-0.211-3.211,0,1,1,81,false,stim,false,0,586,3,0,0,85784,WMM2,534414,false,false,715,image-keyboard-response,23
true,7,0,4,0,true,q,false,true,0.0-2.0-0.23-0.212-3.212,0,1,1,81,false,stim,false,0,499,3,1,2,85784,WMM2,536415,false,false,718,image-keyboard-response,24
true,7,2,4,1,false,z,true,true,0.0-2.0-0.23-0.213-3.213,0,1,1,68,false,stim,false,1,476,3,1,1,85784,WMM2,538395,false,true,721,image-keyboard-response,25
true,7,0,4,0,true,q,false,false,0.0-2.0-0.23-0.214-3.214,0,1,1,81,false,stim,false,0,481,3,1,2,85784,WMM2,540382,false,true,724,image-keyboard-response,26
true,7,0,4,0,true,q,false,true,0.0-2.0-0.23-0.215-3.215,0,1,1,81,false,stim,false,0,486,3,1,2,85784,WMM2,542374,false,false,727,image-keyboard-response,27
true,7,0,4,0,true,q,false,true,0.0-2.0-0.24-0.216-3.216,0,1,1,81,false,stim,false,0,507,3,1,2,85784,WMM2,544385,false,false,730,image-keyboard-response,28
true,7,0,4,0,true,q,false,true,0.0-2.0-0.24-0.217-3.217,0,1,1,81,false,stim,false,0,697,3,0,0,85784,WMM2,546584,false,false,733,image-keyboard-response,29
true,7,0,4,0,true,q,false,true,0.0-2.0-0.24-0.218-3.218,0,1,1,81,false,stim,false,0,458,3,0,0,85784,WMM2,548548,false,false,736,image-keyboard-response,30
true,8,2,3,1,false,z,true,true,0.0-2.0-0.24-0.219-3.219,0,1,1,68,true,stim,false,1,670,3,1,1,85784,WMM2,550728,false,true,739,image-keyboard-response,1
true,8,0,3,0,true,q,false,true,0.0-2.0-0.24-0.220-3.220,0,1,1,81,false,stim,false,0,601,3,1,2,85784,WMM2,552834,false,false,742,image-keyboard-response,2
true,8,2,3,1,false,z,true,true,0.0-2.0-0.24-0.221-3.221,0,1,1,68,false,stim,false,1,708,3,1,1,85784,WMM2,555046,false,true,745,image-keyboard-response,3
true,8,0,3,2,false,d,false,false,0.0-2.0-0.24-0.222-3.222,0,1,1,81,false,stim,true,0,722,3,0,0,85784,WMM2,557274,false,false,748,image-keyboard-response,4
true,8,2,3,1,false,z,true,true,0.0-2.0-0.24-0.223-3.223,0,1,1,68,false,stim,false,1,726,3,1,1,85784,WMM2,559503,false,true,751,image-keyboard-response,5
true,8,0,3,0,true,q,false,true,0.0-2.0-0.24-0.224-3.224,0,1,1,81,false,stim,false,0,759,3,1,2,85784,WMM2,561766,false,false,754,image-keyboard-response,6
true,8,0,3,0,true,q,false,true,0.0-2.0-0.25-0.225-3.225,0,1,1,81,false,stim,false,0,606,3,1,2,85784,WMM2,563880,false,false,757,image-keyboard-response,7
true,8,0,3,2,false,d,false,false,0.0-2.0-0.25-0.226-3.226,0,1,1,81,false,stim,true,0,750,3,0,0,85784,WMM2,566134,false,false,760,image-keyboard-response,8
true,8,2,3,1,false,z,true,false,0.0-2.0-0.25-0.227-3.227,0,1,1,68,false,stim,false,1,514,3,1,1,85784,WMM2,568154,false,false,763,image-keyboard-response,9
true,8,0,3,0,true,q,false,true,0.0-2.0-0.25-0.228-3.228,0,1,1,81,false,stim,false,0,652,3,1,2,85784,WMM2,570309,false,false,766,image-keyboard-response,10
true,8,2,3,1,false,z,true,true,0.0-2.0-0.25-0.229-3.229,0,1,1,68,false,stim,false,1,633,3,1,1,85784,WMM2,572448,false,true,769,image-keyboard-response,11
true,8,2,3,1,false,z,true,false,0.0-2.0-0.25-0.230-3.230,0,1,1,68,false,stim,false,1,644,3,1,1,85784,WMM2,574599,false,false,772,image-keyboard-response,12
true,8,0,3,2,false,d,false,false,0.0-2.0-0.25-0.231-3.231,0,1,1,81,false,stim,true,0,955,3,0,0,85784,WMM2,577061,false,false,775,image-keyboard-response,13
true,8,0,3,0,true,q,false,false,0.0-2.0-0.25-0.232-3.232,0,1,1,81,false,stim,false,0,844,3,1,2,85784,WMM2,579415,false,true,778,image-keyboard-response,14
true,8,1,3,2,false,d,true,false,0.0-2.0-0.25-0.233-3.233,0,1,1,90,false,stim,false,0,570,3,0,0,85784,WMM2,581492,false,false,781,image-keyboard-response,15
true,8,2,3,1,false,z,true,false,0.0-2.0-0.26-0.234-3.234,0,1,1,68,false,stim,false,1,1239,3,1,1,85784,WMM2,584239,false,false,784,image-keyboard-response,16
true,8,2,3,2,true,d,false,true,0.0-2.0-0.26-0.235-3.235,0,1,1,68,false,stim,false,0,841,3,0,0,85784,WMM2,586584,false,false,787,image-keyboard-response,17
true,8,2,3,2,true,d,false,false,0.0-2.0-0.26-0.236-3.236,0,1,1,68,false,stim,false,0,1032,3,0,0,85784,WMM2,589120,false,true,790,image-keyboard-response,18
true,8,0,3,0,true,q,false,false,0.0-2.0-0.26-0.237-3.237,0,1,1,81,false,stim,false,0,1307,3,1,2,85784,WMM2,591930,false,true,793,image-keyboard-response,19
true,8,1,3,0,false,q,true,true,0.0-2.0-0.26-0.238-3.238,0,1,1,90,false,stim,false,0,651,3,1,2,85784,WMM2,594084,false,true,796,image-keyboard-response,20
true,8,1,3,0,false,q,true,false,0.0-2.0-0.26-0.239-3.239,0,1,1,90,false,stim,false,0,502,3,1,2,85784,WMM2,596096,false,false,799,image-keyboard-response,21
true,8,0,3,1,false,z,true,false,0.0-2.0-0.26-0.240-3.240,0,1,1,81,false,stim,false,1,1029,3,1,1,85784,WMM2,598633,false,false,802,image-keyboard-response,22
true,8,1,3,1,true,z,false,true,0.0-2.0-0.26-0.241-3.241,0,1,1,90,false,stim,false,1,529,3,1,1,85784,WMM2,600666,false,false,805,image-keyboard-response,23
true,8,2,3,2,true,d,false,true,0.0-2.0-0.26-0.242-3.242,0,1,1,68,false,stim,false,0,705,3,0,0,85784,WMM2,602877,false,false,808,image-keyboard-response,24
true,8,1,3,0,false,q,true,false,0.0-2.0-0.27-0.243-3.243,0,1,1,90,false,stim,false,0,527,3,1,2,85784,WMM2,604909,false,false,811,image-keyboard-response,25
true,8,1,3,1,true,z,false,true,0.0-2.0-0.27-0.244-3.244,0,1,1,90,false,stim,false,1,937,3,1,1,85784,WMM2,607356,false,false,814,image-keyboard-response,26
true,8,2,3,2,true,d,false,true,0.0-2.0-0.27-0.245-3.245,0,1,1,68,false,stim,false,0,807,3,0,0,85784,WMM2,609670,false,false,817,image-keyboard-response,27
true,8,1,3,1,true,z,false,true,0.0-2.0-0.27-0.246-3.246,0,1,1,90,false,stim,false,1,1058,3,1,1,85784,WMM2,612233,false,false,820,image-keyboard-response,28
true,8,2,3,2,true,d,false,true,0.0-2.0-0.27-0.247-3.247,0,1,1,68,false,stim,false,0,633,3,0,0,85784,WMM2,614373,false,false,823,image-keyboard-response,29
true,8,1,3,0,false,q,true,false,0.0-2.0-0.27-0.248-3.248,0,1,1,90,false,stim,false,0,475,3,1,2,85784,WMM2,616352,false,false,826,image-keyboard-response,30
true,8,2,3,2,true,d,false,true,0.0-2.0-0.27-0.249-3.249,0,1,1,68,false,stim,false,0,741,3,0,0,85784,WMM2,618597,false,false,829,image-keyboard-response,31
true,8,1,3,1,true,z,false,true,0.0-2.0-0.27-0.250-3.250,0,1,1,90,false,stim,false,1,949,3,1,1,85784,WMM2,621051,false,false,832,image-keyboard-response,32
true,8,0,3,0,true,q,false,true,0.0-2.0-0.27-0.251-3.251,0,1,1,81,false,stim,false,0,688,3,1,2,85784,WMM2,623245,false,false,835,image-keyboard-response,33
true,8,0,3,0,true,q,false,true,0.0-2.0-0.28-0.252-3.252,0,1,1,81,false,stim,false,0,645,3,1,2,85784,WMM2,625394,false,false,838,image-keyboard-response,34
true,8,1,3,1,true,z,false,true,0.0-2.0-0.28-0.253-3.253,0,1,1,90,false,stim,false,1,518,3,0,1,85784,WMM2,627417,false,false,841,image-keyboard-response,35
true,8,2,3,2,true,d,false,true,0.0-2.0-0.28-0.254-3.254,0,1,1,68,false,stim,false,0,792,3,1,0,85784,WMM2,629713,false,false,844,image-keyboard-response,36
true,8,2,3,2,true,d,false,true,0.0-2.0-0.28-0.255-3.255,0,1,1,68,false,stim,false,0,612,3,1,0,85784,WMM2,631830,false,false,847,image-keyboard-response,37
true,8,1,3,1,true,z,false,true,0.0-2.0-0.28-0.256-3.256,0,1,1,90,false,stim,false,1,784,3,0,1,85784,WMM2,634124,false,false,850,image-keyboard-response,38
true,8,0,3,0,true,q,false,true,0.0-2.0-0.28-0.257-3.257,0,1,1,81,false,stim,false,0,600,3,1,2,85784,WMM2,636226,false,false,853,image-keyboard-response,39
true,8,0,3,0,true,q,false,true,0.0-2.0-0.28-0.258-3.258,0,1,1,81,false,stim,false,0,722,3,1,2,85784,WMM2,638457,false,false,856,image-keyboard-response,40
true,8,2,3,2,true,d,false,true,0.0-2.0-0.28-0.259-3.259,0,1,1,68,false,stim,false,0,1089,3,1,0,85784,WMM2,641051,false,false,859,image-keyboard-response,41
true,8,1,3,1,true,z,false,true,0.0-2.0-0.28-0.260-3.260,0,1,1,90,false,stim,false,1,878,3,0,1,85784,WMM2,643440,false,false,862,image-keyboard-response,42
true,8,1,3,1,true,z,false,true,0.0-2.0-0.29-0.261-3.261,0,1,1,90,false,stim,false,1,602,3,0,1,85784,WMM2,645548,false,false,865,image-keyboard-response,43
true,8,0,3,0,true,q,false,true,0.0-2.0-0.29-0.262-3.262,0,1,1,81,false,stim,false,0,1183,3,1,2,85784,WMM2,648238,false,false,868,image-keyboard-response,44
true,9,1,2,2,false,d,false,false,0.0-2.0-0.29-0.263-3.263,1,0,1,90,true,stim,true,1,666,3,0,1,85784,WMM2,650411,false,false,871,image-keyboard-response,1
true,9,2,2,2,true,d,false,true,0.0-2.0-0.29-0.264-3.264,1,0,1,68,false,stim,false,2,672,3,1,0,85784,WMM2,652586,false,false,874,image-keyboard-response,2
true,9,0,2,0,true,q,false,true,0.0-2.0-0.29-0.265-3.265,1,0,1,81,false,stim,false,0,1235,3,1,2,85784,WMM2,655326,false,false,877,image-keyboard-response,3
true,9,2,2,2,true,d,false,true,0.0-2.0-0.29-0.266-3.266,1,0,1,68,false,stim,false,2,1120,3,1,0,85784,WMM2,657949,false,false,880,image-keyboard-response,4
true,9,0,2,0,true,q,false,false,0.0-2.0-0.29-0.267-3.267,1,0,1,81,false,stim,false,0,693,3,1,2,85784,WMM2,660147,false,true,883,image-keyboard-response,5
true,9,1,2,2,false,d,false,false,0.0-2.0-0.29-0.268-3.268,1,0,1,90,false,stim,true,1,611,3,0,1,85784,WMM2,662262,false,false,886,image-keyboard-response,6
true,9,2,2,2,true,d,false,true,0.0-2.0-0.29-0.269-3.269,1,0,1,68,false,stim,false,2,770,3,1,0,85784,WMM2,664540,false,false,889,image-keyboard-response,7
true,9,2,2,2,true,d,false,true,0.0-2.0-0.30-0.270-3.270,1,0,1,68,false,stim,false,2,605,3,1,0,85784,WMM2,666650,false,false,892,image-keyboard-response,8
true,9,0,2,2,false,d,true,false,0.0-2.0-0.30-0.271-3.271,1,0,1,81,false,stim,false,1,766,3,0,1,85784,WMM2,668922,false,false,895,image-keyboard-response,9
true,9,2,2,2,true,d,false,true,0.0-2.0-0.30-0.272-3.272,1,0,1,68,false,stim,false,2,1467,3,1,0,85784,WMM2,671891,false,false,898,image-keyboard-response,10
true,9,1,2,2,false,d,false,false,0.0-2.0-0.30-0.273-3.273,1,0,1,90,false,stim,true,1,558,3,0,1,85784,WMM2,673956,false,false,901,image-keyboard-response,11
true,9,0,2,0,true,q,false,true,0.0-2.0-0.30-0.274-3.274,1,0,1,81,false,stim,false,0,775,3,1,2,85784,WMM2,676234,false,false,904,image-keyboard-response,12
true,9,0,2,0,true,q,false,true,0.0-2.0-0.30-0.275-3.275,1,0,1,81,false,stim,false,0,574,3,1,2,85784,WMM2,678313,false,false,907,image-keyboard-response,13
true,9,2,2,2,true,d,false,true,0.0-2.0-0.30-0.276-3.276,1,0,1,68,false,stim,false,2,614,3,1,0,85784,WMM2,680430,false,false,910,image-keyboard-response,14
true,9,1,2,2,false,d,false,false,0.0-2.0-0.30-0.277-3.277,1,0,1,90,false,stim,true,1,566,3,0,1,85784,WMM2,682500,false,false,913,image-keyboard-response,15
true,9,0,2,0,true,q,false,true,0.0-2.0-0.30-0.278-3.278,1,0,1,81,false,stim,false,0,654,3,1,2,85784,WMM2,684659,false,false,916,image-keyboard-response,16
true,9,0,2,0,true,q,false,true,0.0-2.0-0.31-0.279-3.279,1,0,1,81,false,stim,false,0,604,3,1,2,85784,WMM2,686768,false,false,919,image-keyboard-response,17
true,9,2,2,2,true,d,false,true,0.0-2.0-0.31-0.280-3.280,1,0,1,68,false,stim,false,1,740,3,0,1,85784,WMM2,689013,false,false,922,image-keyboard-response,18
true,9,2,2,2,true,d,false,false,0.0-2.0-0.31-0.281-3.281,1,0,1,68,false,stim,false,2,698,3,1,0,85784,WMM2,691215,false,true,925,image-keyboard-response,19
true,9,0,2,0,true,q,false,true,0.0-2.0-0.31-0.282-3.282,1,0,1,81,false,stim,false,0,589,3,1,2,85784,WMM2,693306,false,false,928,image-keyboard-response,20
true,9,2,2,2,true,d,false,true,0.0-2.0-0.31-0.283-3.283,1,0,1,68,false,stim,false,2,469,3,1,0,85784,WMM2,695279,false,false,931,image-keyboard-response,21
true,9,2,2,2,true,d,false,true,0.0-2.0-0.31-0.284-3.284,1,0,1,68,false,stim,false,1,570,3,0,1,85784,WMM2,697354,false,false,934,image-keyboard-response,22
true,9,0,2,0,true,q,false,true,0.0-2.0-0.31-0.285-3.285,1,0,1,81,false,stim,false,0,454,3,1,2,85784,WMM2,699315,false,false,937,image-keyboard-response,23
true,9,2,2,2,true,d,false,false,0.0-2.0-0.31-0.286-3.286,1,0,1,68,false,stim,false,1,666,3,1,1,85784,WMM2,701488,false,true,940,image-keyboard-response,24
true,9,2,2,2,true,d,false,false,0.0-2.0-0.31-0.287-3.287,1,0,1,68,false,stim,false,2,728,3,0,0,85784,WMM2,703721,false,true,943,image-keyboard-response,25
true,9,0,2,0,true,q,false,true,0.0-2.0-0.32-0.288-3.288,1,0,1,81,false,stim,false,0,532,3,1,2,85784,WMM2,705759,false,false,946,image-keyboard-response,26
true,9,2,2,2,true,d,false,true,0.0-2.0-0.32-0.289-3.289,1,0,1,68,false,stim,false,2,553,3,0,0,85784,WMM2,707817,false,false,949,image-keyboard-response,27
true,9,2,2,2,true,d,false,true,0.0-2.0-0.32-0.290-3.290,1,0,1,68,false,stim,false,2,524,3,0,0,85784,WMM2,709847,false,false,952,image-keyboard-response,28
true,9,2,2,2,true,d,false,true,0.0-2.0-0.32-0.291-3.291,1,0,1,68,false,stim,false,2,418,3,0,0,85784,WMM2,711769,false,false,955,image-keyboard-response,29
true,9,2,2,2,true,d,false,true,0.0-2.0-0.32-0.292-3.292,1,0,1,68,false,stim,false,1,516,3,1,1,85784,WMM2,713790,false,false,958,image-keyboard-response,30
true,9,0,2,0,true,q,false,false,0.0-2.0-0.32-0.293-3.293,1,0,1,81,false,stim,false,0,731,3,1,2,85784,WMM2,716024,false,true,961,image-keyboard-response,31
true,9,0,2,0,true,q,false,true,0.0-2.0-0.32-0.294-3.294,1,0,1,81,false,stim,false,0,369,3,1,2,85784,WMM2,717899,false,false,964,image-keyboard-response,32
true,10,2,2,2,true,d,false,true,0.0-2.0-0.32-0.295-3.295,0,1,1,68,true,stim,false,2,482,3,1,1,85784,WMM2,719885,false,false,967,image-keyboard-response,1
true,10,2,2,2,true,d,false,true,0.0-2.0-0.32-0.296-3.296,0,1,1,68,false,stim,false,2,469,3,1,1,85784,WMM2,721863,false,false,970,image-keyboard-response,2
true,10,0,2,0,true,q,false,true,0.0-2.0-0.33-0.297-3.297,0,1,1,81,false,stim,false,0,680,3,1,2,85784,WMM2,724047,false,false,973,image-keyboard-response,3
true,10,0,2,0,true,q,false,true,0.0-2.0-0.33-0.298-3.298,0,1,1,81,false,stim,false,0,467,3,1,2,85784,WMM2,726019,false,false,976,image-keyboard-response,4
true,10,2,2,0,false,q,false,false,0.0-2.0-0.33-0.299-3.299,0,1,1,68,false,stim,true,2,554,3,0,0,85784,WMM2,728078,false,false,979,image-keyboard-response,5
true,10,2,2,2,true,d,false,true,0.0-2.0-0.33-0.300-3.300,0,1,1,68,false,stim,false,2,628,3,1,1,85784,WMM2,730212,false,false,982,image-keyboard-response,6
true,10,2,2,0,false,q,false,false,0.0-2.0-0.33-0.301-3.301,0,1,1,68,false,stim,true,2,535,3,0,0,85784,WMM2,732252,false,false,985,image-keyboard-response,7
true,10,0,2,0,true,q,false,true,0.0-2.0-0.33-0.302-3.302,0,1,1,81,false,stim,false,0,651,3,1,2,85784,WMM2,734411,false,false,988,image-keyboard-response,8
true,10,2,2,2,true,d,false,false,0.0-2.0-0.33-0.303-3.303,0,1,1,68,false,stim,false,2,536,3,1,1,85784,WMM2,736458,false,true,991,image-keyboard-response,9
true,10,0,2,0,true,q,false,true,0.0-2.0-0.33-0.304-3.304,0,1,1,81,false,stim,false,2,577,3,0,0,85784,WMM2,738538,false,false,994,image-keyboard-response,10
true,10,2,2,2,true,d,false,true,0.0-2.0-0.33-0.305-3.305,0,1,1,68,false,stim,false,2,586,3,1,1,85784,WMM2,740629,false,false,997,image-keyboard-response,11
true,10,2,2,2,true,d,false,true,0.0-2.0-0.34-0.306-3.306,0,1,1,68,false,stim,false,2,578,3,1,1,85784,WMM2,742711,false,false,1000,image-keyboard-response,12
false,10,-1,2,0,false,q,true,false,0.0-2.0-0.34-0.307-3.307,0,1,1,,false,stim,false,0,,3,1,2,85784,WMM2,747220,false,false,1003,image-keyboard-response,13
true,10,0,2,0,true,q,false,true,0.0-2.0-0.34-0.308-3.308,0,1,1,81,false,stim,false,2,1962,3,0,0,85784,WMM2,750686,false,false,1006,image-keyboard-response,14
true,10,2,2,2,true,d,false,false,0.0-2.0-0.34-0.309-3.309,0,1,1,68,false,stim,false,2,1113,3,1,1,85784,WMM2,753301,false,true,1009,image-keyboard-response,15
true,10,0,2,0,true,q,false,true,0.0-2.0-0.34-0.310-3.310,0,1,1,81,false,stim,false,0,892,3,1,2,85784,WMM2,755696,false,false,1012,image-keyboard-response,16
true,10,0,2,0,true,q,false,true,0.0-2.0-0.34-0.311-3.311,0,1,1,81,false,stim,false,2,479,3,0,0,85784,WMM2,757680,false,false,1015,image-keyboard-response,17
true,10,0,2,0,true,q,false,true,0.0-2.0-0.34-0.312-3.312,0,1,1,81,false,stim,false,0,795,3,1,2,85784,WMM2,759983,false,false,1018,image-keyboard-response,18
true,10,0,2,0,true,q,false,true,0.0-2.0-0.34-0.313-3.313,0,1,1,81,false,stim,false,2,509,3,0,0,85784,WMM2,761996,false,false,1021,image-keyboard-response,19
true,10,2,2,2,true,d,false,true,0.0-2.0-0.34-0.314-3.314,0,1,1,68,false,stim,false,2,471,3,1,1,85784,WMM2,763972,false,false,1024,image-keyboard-response,20
true,10,0,2,0,true,q,false,true,0.0-2.0-0.35-0.315-3.315,0,1,1,81,false,stim,false,0,621,3,1,2,85784,WMM2,766105,false,false,1027,image-keyboard-response,21
true,10,0,2,0,true,q,false,true,0.0-2.0-0.35-0.316-3.316,0,1,1,81,false,stim,false,0,545,3,1,2,85784,WMM2,768158,false,false,1030,image-keyboard-response,22
true,10,0,2,0,true,q,false,false,0.0-2.0-0.35-0.317-3.317,0,1,1,81,false,stim,false,0,763,3,1,2,85784,WMM2,770429,false,true,1033,image-keyboard-response,23
true,10,2,2,2,true,d,false,true,0.0-2.0-0.35-0.318-3.318,0,1,1,68,false,stim,false,2,909,3,1,1,85784,WMM2,772843,false,false,1036,image-keyboard-response,24
true,10,0,2,0,true,q,false,true,0.0-2.0-0.35-0.319-3.319,0,1,1,81,false,stim,false,2,541,3,0,0,85784,WMM2,774890,false,false,1039,image-keyboard-response,25
true,10,2,2,2,true,d,false,false,0.0-2.0-0.35-0.320-3.320,0,1,1,68,false,stim,false,2,592,3,1,1,85784,WMM2,776985,false,true,1042,image-keyboard-response,26
true,10,2,2,2,true,d,false,true,0.0-2.0-0.35-0.321-3.321,0,1,1,68,false,stim,false,2,947,3,1,1,85784,WMM2,779438,false,false,1045,image-keyboard-response,27
true,10,0,2,0,true,q,false,true,0.0-2.0-0.35-0.322-3.322,0,1,1,81,false,stim,false,2,584,3,0,0,85784,WMM2,781528,false,false,1048,image-keyboard-response,28
true,10,0,2,0,true,q,false,true,0.0-2.0-0.35-0.323-3.323,0,1,1,81,false,stim,false,2,473,3,0,0,85784,WMM2,783504,false,false,1051,image-keyboard-response,29
true,10,0,2,0,true,q,false,true,0.0-2.0-0.36-0.324-3.324,0,1,1,81,false,stim,false,0,1326,3,1,2,85784,WMM2,786339,false,false,1054,image-keyboard-response,30
true,11,0,3,0,true,q,false,true,0.0-2.0-0.36-0.325-3.325,0,1,1,81,true,stim,false,0,540,3,1,2,85784,WMM2,788385,false,false,1057,image-keyboard-response,1
true,11,2,3,2,true,d,false,true,0.0-2.0-0.36-0.326-3.326,0,1,1,68,false,stim,false,2,748,3,1,1,85784,WMM2,790637,false,false,1060,image-keyboard-response,2
true,11,2,3,2,true,d,false,true,0.0-2.0-0.36-0.327-3.327,0,1,1,68,false,stim,false,2,495,3,1,1,85784,WMM2,792643,false,false,1063,image-keyboard-response,3
true,11,0,3,0,true,q,false,true,0.0-2.0-0.36-0.328-3.328,0,1,1,81,false,stim,false,0,798,3,1,2,85784,WMM2,794945,false,false,1066,image-keyboard-response,4
true,11,2,3,2,true,d,false,false,0.0-2.0-0.36-0.329-3.329,0,1,1,68,false,stim,false,2,838,3,1,1,85784,WMM2,797287,false,true,1069,image-keyboard-response,5
true,11,0,3,1,false,z,false,false,0.0-2.0-0.36-0.330-3.330,0,1,1,81,false,stim,true,0,673,3,0,0,85784,WMM2,799470,false,false,1072,image-keyboard-response,6
true,11,0,3,1,false,z,false,true,0.0-2.0-0.36-0.331-3.331,0,1,1,81,false,stim,true,0,564,3,0,0,85784,WMM2,801539,false,true,1075,image-keyboard-response,7
true,11,0,3,1,false,z,false,false,0.0-2.0-0.36-0.332-3.332,0,1,1,81,false,stim,true,0,545,3,0,0,85784,WMM2,803589,false,false,1078,image-keyboard-response,8
true,11,0,3,0,true,q,false,true,0.0-2.0-0.37-0.333-3.333,0,1,1,81,false,stim,false,0,588,3,1,2,85784,WMM2,805679,false,false,1081,image-keyboard-response,9
true,11,0,3,0,true,q,false,true,0.0-2.0-0.37-0.334-3.334,0,1,1,81,false,stim,false,0,1218,3,1,2,85784,WMM2,808402,false,false,1084,image-keyboard-response,10
true,11,0,3,0,true,q,false,true,0.0-2.0-0.37-0.335-3.335,0,1,1,81,false,stim,false,0,537,3,1,2,85784,WMM2,810445,false,false,1087,image-keyboard-response,11
true,11,2,3,2,true,d,false,true,0.0-2.0-0.37-0.336-3.336,0,1,1,68,false,stim,false,2,606,3,1,1,85784,WMM2,812555,false,false,1090,image-keyboard-response,12
true,11,0,3,1,false,z,false,false,0.0-2.0-0.37-0.337-3.337,0,1,1,81,false,stim,true,0,608,3,0,0,85784,WMM2,814670,false,false,1093,image-keyboard-response,13
true,11,2,3,2,true,d,false,true,0.0-2.0-0.37-0.338-3.338,0,1,1,68,false,stim,false,2,722,3,1,1,85784,WMM2,816898,false,false,1096,image-keyboard-response,14
true,11,2,3,2,true,d,false,true,0.0-2.0-0.37-0.339-3.339,0,1,1,68,false,stim,false,2,501,3,1,1,85784,WMM2,818904,false,false,1099,image-keyboard-response,15
true,11,0,3,1,false,z,false,false,0.0-2.0-0.37-0.340-3.340,0,1,1,81,false,stim,true,0,667,3,0,0,85784,WMM2,821081,false,false,1102,image-keyboard-response,16
true,11,1,3,1,true,z,false,true,0.0-2.0-0.37-0.341-3.341,0,1,1,90,false,stim,false,0,650,3,0,0,85784,WMM2,823238,false,false,1105,image-keyboard-response,17
true,11,0,3,0,true,q,false,true,0.0-2.0-0.38-0.342-3.342,0,1,1,81,false,stim,false,0,513,3,1,2,85784,WMM2,825257,false,false,1108,image-keyboard-response,18
true,11,1,3,1,true,z,false,true,0.0-2.0-0.38-0.343-3.343,0,1,1,90,false,stim,false,0,603,3,0,0,85784,WMM2,827363,false,false,1111,image-keyboard-response,19
true,11,2,3,2,true,d,false,false,0.0-2.0-0.38-0.344-3.344,0,1,1,68,false,stim,false,2,753,3,1,1,85784,WMM2,829624,false,true,1114,image-keyboard-response,20
true,11,1,3,1,true,z,false,true,0.0-2.0-0.38-0.345-3.345,0,1,1,90,false,stim,false,0,509,3,0,0,85784,WMM2,831644,false,false,1117,image-keyboard-response,21
true,11,0,3,0,true,q,false,true,0.0-2.0-0.38-0.346-3.346,0,1,1,81,false,stim,false,0,639,3,0,2,85784,WMM2,833795,false,false,1120,image-keyboard-response,22
true,11,2,3,2,true,d,false,true,0.0-2.0-0.38-0.347-3.347,0,1,1,68,false,stim,false,2,705,3,1,1,85784,WMM2,836007,false,false,1123,image-keyboard-response,23
true,11,2,3,2,true,d,false,true,0.0-2.0-0.38-0.348-3.348,0,1,1,68,false,stim,false,2,484,3,1,1,85784,WMM2,837997,false,false,1126,image-keyboard-response,24
true,11,0,3,0,true,q,false,true,0.0-2.0-0.38-0.349-3.349,0,1,1,81,false,stim,false,0,496,3,0,2,85784,WMM2,839997,false,false,1129,image-keyboard-response,25
true,11,1,3,1,true,z,false,true,0.0-2.0-0.38-0.350-3.350,0,1,1,90,false,stim,false,0,516,3,0,0,85784,WMM2,842018,false,false,1132,image-keyboard-response,26
true,11,0,3,0,true,q,false,true,0.0-2.0-0.39-0.351-3.351,0,1,1,81,false,stim,false,0,567,3,0,2,85784,WMM2,844090,false,false,1135,image-keyboard-response,27
true,11,0,3,0,true,q,false,true,0.0-2.0-0.39-0.352-3.352,0,1,1,81,false,stim,false,0,557,3,0,2,85784,WMM2,846152,false,false,1138,image-keyboard-response,28
true,11,1,3,1,true,z,false,true,0.0-2.0-0.39-0.353-3.353,0,1,1,90,false,stim,false,0,616,3,0,0,85784,WMM2,848274,false,false,1141,image-keyboard-response,29
true,11,1,3,1,true,z,false,true,0.0-2.0-0.39-0.354-3.354,0,1,1,90,false,stim,false,0,487,3,0,0,85784,WMM2,850267,false,false,1144,image-keyboard-response,30
true,12,2,1,2,true,d,false,true,0.0-2.0-0.39-0.355-3.355,0,1,0,68,true,stim,false,2,627,3,1,1,85784,WMM2,852398,false,false,1147,image-keyboard-response,1
true,12,0,1,2,false,d,false,true,0.0-2.0-0.39-0.356-3.356,0,1,0,81,false,stim,true,0,582,3,0,2,85784,WMM2,854486,false,true,1150,image-keyboard-response,2
true,12,1,1,2,false,d,true,false,0.0-2.0-0.39-0.357-3.357,0,1,0,90,false,stim,false,2,902,3,1,1,85784,WMM2,856892,false,false,1153,image-keyboard-response,3
true,12,1,1,0,false,q,false,false,0.0-2.0-0.39-0.358-3.358,0,1,0,90,false,stim,true,1,698,3,0,0,85784,WMM2,859093,false,false,1156,image-keyboard-response,4
true,12,2,1,2,true,d,false,true,0.0-2.0-0.39-0.359-3.359,0,1,0,68,false,stim,false,2,575,3,1,1,85784,WMM2,861172,false,false,1159,image-keyboard-response,5
true,12,0,1,2,false,d,false,false,0.0-2.0-0.40-0.360-3.360,0,1,0,81,false,stim,true,0,689,3,0,2,85784,WMM2,863367,false,false,1162,image-keyboard-response,6
true,12,2,1,2,true,d,false,true,0.0-2.0-0.40-0.361-3.361,0,1,0,68,false,stim,false,2,796,3,1,1,85784,WMM2,865668,false,false,1165,image-keyboard-response,7
true,12,1,1,0,false,q,false,false,0.0-2.0-0.40-0.362-3.362,0,1,0,90,false,stim,true,1,579,3,0,0,85784,WMM2,867754,false,false,1168,image-keyboard-response,8
true,12,0,1,2,false,d,false,true,0.0-2.0-0.40-0.363-3.363,0,1,0,81,false,stim,true,0,753,3,0,2,85784,WMM2,870010,false,true,1171,image-keyboard-response,9
true,12,2,1,2,true,d,false,false,0.0-2.0-0.40-0.364-3.364,0,1,0,68,false,stim,false,2,808,3,1,1,85784,WMM2,872322,false,true,1174,image-keyboard-response,10
true,12,2,1,0,false,q,true,false,0.0-2.0-0.40-0.365-3.365,0,1,0,68,false,stim,false,1,741,3,0,0,85784,WMM2,874566,false,false,1177,image-keyboard-response,11
true,12,0,1,2,false,d,false,false,0.0-2.0-0.40-0.366-3.366,0,1,0,81,false,stim,true,0,682,3,0,2,85784,WMM2,876757,false,false,1180,image-keyboard-response,12
true,12,0,1,0,true,q,false,true,0.0-2.0-0.40-0.367-3.367,0,1,0,81,false,stim,false,1,679,3,0,0,85784,WMM2,878941,false,false,1183,image-keyboard-response,13
true,12,2,1,2,true,d,false,true,0.0-2.0-0.40-0.368-3.368,0,1,0,68,false,stim,false,2,636,3,1,1,85784,WMM2,881085,false,false,1186,image-keyboard-response,14
true,12,2,1,2,true,d,false,true,0.0-2.0-0.41-0.369-3.369,0,1,0,68,false,stim,false,2,608,3,1,1,85784,WMM2,883198,false,false,1189,image-keyboard-response,15
true,12,0,1,0,true,q,false,false,0.0-2.0-0.41-0.370-3.370,0,1,0,81,false,stim,false,1,500,3,0,0,85784,WMM2,885203,false,true,1192,image-keyboard-response,16
true,12,2,1,2,true,d,false,true,0.0-2.0-0.41-0.371-3.371,0,1,0,68,false,stim,false,2,570,3,1,1,85784,WMM2,887281,false,false,1195,image-keyboard-response,17
true,12,1,1,2,false,d,true,false,0.0-2.0-0.41-0.372-3.372,0,1,0,90,false,stim,false,0,818,3,0,2,85784,WMM2,889605,false,false,1198,image-keyboard-response,18
true,12,0,1,0,true,q,false,true,0.0-2.0-0.41-0.373-3.373,0,1,0,81,false,stim,false,1,558,3,0,0,85784,WMM2,891673,false,false,1201,image-keyboard-response,19
true,12,2,1,2,true,d,false,true,0.0-2.0-0.41-0.374-3.374,0,1,0,68,false,stim,false,2,785,3,1,1,85784,WMM2,893965,false,false,1204,image-keyboard-response,20
true,12,0,1,0,true,q,false,true,0.0-2.0-0.41-0.375-3.375,0,1,0,81,false,stim,false,1,618,3,0,0,85784,WMM2,896090,false,false,1207,image-keyboard-response,21
true,12,2,1,2,true,d,false,true,0.0-2.0-0.41-0.376-3.376,0,1,0,68,false,stim,false,0,765,3,0,2,85784,WMM2,898366,false,false,1210,image-keyboard-response,22
true,12,2,1,2,true,d,false,true,0.0-2.0-0.41-0.377-3.377,0,1,0,68,false,stim,false,0,588,3,0,2,85784,WMM2,900463,false,false,1213,image-keyboard-response,23
true,12,2,1,2,true,d,false,true,0.0-2.0-0.42-0.378-3.378,0,1,0,68,false,stim,false,2,778,3,0,1,85784,WMM2,902747,false,false,1216,image-keyboard-response,24
true,12,2,1,2,true,d,false,true,0.0-2.0-0.42-0.379-3.379,0,1,0,68,false,stim,false,2,529,3,0,1,85784,WMM2,904783,false,false,1219,image-keyboard-response,25
true,12,0,1,0,true,q,false,true,0.0-2.0-0.42-0.380-3.380,0,1,0,81,false,stim,false,1,535,3,1,0,85784,WMM2,906824,false,false,1222,image-keyboard-response,26
true,12,2,1,2,true,d,false,true,0.0-2.0-0.42-0.381-3.381,0,1,0,68,false,stim,false,0,1035,3,0,2,85784,WMM2,909362,false,false,1225,image-keyboard-response,27
true,12,0,1,0,true,q,false,true,0.0-2.0-0.42-0.382-3.382,0,1,0,81,false,stim,false,1,549,3,1,0,85784,WMM2,911419,false,false,1228,image-keyboard-response,28
true,12,2,1,2,true,d,false,true,0.0-2.0-0.42-0.383-3.383,0,1,0,68,false,stim,false,0,589,3,0,2,85784,WMM2,913511,false,false,1231,image-keyboard-response,29
true,12,0,1,0,true,q,false,true,0.0-2.0-0.42-0.384-3.384,0,1,0,81,false,stim,false,1,939,3,1,0,85784,WMM2,915958,false,false,1234,image-keyboard-response,30
true,12,2,1,2,true,d,false,true,0.0-2.0-0.42-0.385-3.385,0,1,0,68,false,stim,false,0,546,3,0,2,85784,WMM2,918010,false,false,1237,image-keyboard-response,31
true,12,2,1,2,true,d,false,true,0.0-2.0-0.42-0.386-3.386,0,1,0,68,false,stim,false,2,1220,3,0,1,85784,WMM2,920737,false,false,1240,image-keyboard-response,32
true,12,2,1,2,true,d,false,true,0.0-2.0-0.43-0.387-3.387,0,1,0,68,false,stim,false,2,652,3,0,1,85784,WMM2,922897,false,false,1243,image-keyboard-response,33
true,13,0,1,0,true,q,false,true,0.0-2.0-0.43-0.388-3.388,1,0,0,81,true,stim,false,0,553,3,1,0,85784,WMM2,924955,false,false,1246,image-keyboard-response,1
true,13,2,1,1,false,z,false,false,0.0-2.0-0.43-0.389-3.389,1,0,0,68,false,stim,true,2,792,3,0,2,85784,WMM2,927250,false,false,1249,image-keyboard-response,2
true,13,0,1,0,true,q,false,true,0.0-2.0-0.43-0.390-3.390,1,0,0,81,false,stim,false,0,681,3,1,0,85784,WMM2,929438,false,false,1252,image-keyboard-response,3
true,13,2,1,0,false,q,true,true,0.0-2.0-0.43-0.391-3.391,1,0,0,68,false,stim,false,0,482,3,1,0,85784,WMM2,931426,false,true,1255,image-keyboard-response,4
true,13,2,1,1,false,z,false,false,0.0-2.0-0.43-0.392-3.392,1,0,0,68,false,stim,true,2,1389,3,0,2,85784,WMM2,934319,false,false,1258,image-keyboard-response,5
true,13,2,1,1,false,z,false,false,0.0-2.0-0.43-0.393-3.393,1,0,0,68,false,stim,true,2,722,3,0,1,85784,WMM2,936545,false,false,1261,image-keyboard-response,6
true,13,0,1,1,false,z,true,false,0.0-2.0-0.43-0.394-3.394,1,0,0,81,false,stim,false,2,441,3,0,2,85784,WMM2,938494,false,false,1264,image-keyboard-response,7
true,13,2,1,1,false,z,false,false,0.0-2.0-0.43-0.395-3.395,1,0,0,68,false,stim,true,2,1106,3,0,1,85784,WMM2,941105,false,false,1267,image-keyboard-response,8
true,13,0,1,1,false,z,true,false,0.0-2.0-0.44-0.396-3.396,1,0,0,81,false,stim,false,2,820,3,0,1,85784,WMM2,943431,false,false,1270,image-keyboard-response,9
true,13,1,1,1,true,z,false,true,0.0-2.0-0.44-0.397-3.397,1,0,0,90,false,stim,false,2,1997,3,0,2,85784,WMM2,946935,false,false,1273,image-keyboard-response,10
true,13,0,1,0,true,q,false,true,0.0-2.0-0.44-0.398-3.398,1,0,0,81,false,stim,false,0,910,3,1,0,85784,WMM2,949354,false,false,1276,image-keyboard-response,11
true,13,1,1,1,true,z,false,true,0.0-2.0-0.44-0.399-3.399,1,0,0,90,false,stim,false,2,934,3,0,1,85784,WMM2,951791,false,false,1279,image-keyboard-response,12
true,13,0,1,0,true,q,false,true,0.0-2.0-0.44-0.400-3.400,1,0,0,81,false,stim,false,0,679,3,1,0,85784,WMM2,953973,false,false,1282,image-keyboard-response,13
true,13,0,1,0,true,q,false,true,0.0-2.0-0.44-0.401-3.401,1,0,0,81,false,stim,false,0,444,3,1,0,85784,WMM2,955922,false,false,1285,image-keyboard-response,14
true,13,1,1,1,true,z,false,true,0.0-2.0-0.44-0.402-3.402,1,0,0,90,false,stim,false,2,553,3,0,1,85784,WMM2,957980,false,false,1288,image-keyboard-response,15
true,13,1,1,1,true,z,false,true,0.0-2.0-0.44-0.403-3.403,1,0,0,90,false,stim,false,2,826,3,0,2,85784,WMM2,960318,false,false,1291,image-keyboard-response,16
true,13,1,1,1,true,z,false,true,0.0-2.0-0.44-0.404-3.404,1,0,0,90,false,stim,false,2,506,3,0,2,85784,WMM2,962333,false,false,1294,image-keyboard-response,17
true,13,0,1,0,true,q,false,true,0.0-2.0-0.45-0.405-3.405,1,0,0,81,false,stim,false,0,706,3,1,0,85784,WMM2,964546,false,false,1297,image-keyboard-response,18
true,13,1,1,1,true,z,false,false,0.0-2.0-0.45-0.406-3.406,1,0,0,90,false,stim,false,2,1040,3,0,1,85784,WMM2,967091,false,true,1300,image-keyboard-response,19
true,13,1,1,1,true,z,false,true,0.0-2.0-0.45-0.407-3.407,1,0,0,90,false,stim,false,2,590,3,0,1,85784,WMM2,969189,false,false,1303,image-keyboard-response,20
true,13,1,1,1,true,z,false,true,0.0-2.0-0.45-0.408-3.408,1,0,0,90,false,stim,false,2,943,3,0,2,85784,WMM2,971640,false,false,1306,image-keyboard-response,21
true,13,1,1,1,true,z,false,true,0.0-2.0-0.45-0.409-3.409,1,0,0,90,false,stim,false,2,528,3,1,1,85784,WMM2,973676,false,false,1309,image-keyboard-response,22
true,13,1,1,1,true,z,false,true,0.0-2.0-0.45-0.410-3.410,1,0,0,90,false,stim,false,2,524,3,0,2,85784,WMM2,975706,false,false,1312,image-keyboard-response,23
true,13,0,1,0,true,q,false,true,0.0-2.0-0.45-0.411-3.411,1,0,0,81,false,stim,false,0,727,3,1,0,85784,WMM2,977937,false,false,1315,image-keyboard-response,24
true,13,0,1,0,true,q,false,true,0.0-2.0-0.45-0.412-3.412,1,0,0,81,false,stim,false,0,502,3,1,0,85784,WMM2,979949,false,false,1318,image-keyboard-response,25
true,13,1,1,1,true,z,false,true,0.0-2.0-0.45-0.413-3.413,1,0,0,90,false,stim,false,2,595,3,0,2,85784,WMM2,982050,false,false,1321,image-keyboard-response,26
true,13,0,1,0,true,q,false,true,0.0-2.0-0.46-0.414-3.414,1,0,0,81,false,stim,false,0,871,3,1,0,85784,WMM2,984429,false,false,1324,image-keyboard-response,27
true,13,0,1,0,true,q,false,true,0.0-2.0-0.46-0.415-3.415,1,0,0,81,false,stim,false,0,639,3,1,0,85784,WMM2,986575,false,false,1327,image-keyboard-response,28
true,13,1,1,1,true,z,false,true,0.0-2.0-0.46-0.416-3.416,1,0,0,90,false,stim,false,2,1107,3,0,2,85784,WMM2,989191,false,false,1330,image-keyboard-response,29
true,13,1,1,1,true,z,false,true,0.0-2.0-0.46-0.417-3.417,1,0,0,90,false,stim,false,2,1514,3,1,1,85784,WMM2,992211,false,false,1333,image-keyboard-response,30
true,14,0,0,1,false,z,true,false,0.0-2.0-0.46-0.418-3.418,1,1,0,81,true,stim,false,1,803,3,1,1,85784,WMM2,1103010,false,false,1445,image-keyboard-response,1
true,14,0,0,1,false,z,true,false,0.0-2.0-0.46-0.419-3.419,1,1,0,81,false,stim,false,1,624,3,0,2,85784,WMM2,1105140,false,false,1448,image-keyboard-response,2
true,14,1,0,1,true,z,false,true,0.0-2.0-0.46-0.420-3.420,1,1,0,90,false,stim,false,1,631,3,1,1,85784,WMM2,1107279,false,false,1451,image-keyboard-response,3
true,14,1,0,1,true,z,false,true,0.0-2.0-0.46-0.421-3.421,1,1,0,90,false,stim,false,1,495,3,0,2,85784,WMM2,1109279,false,false,1454,image-keyboard-response,4
true,14,0,0,0,true,q,false,true,0.0-2.0-0.46-0.422-3.422,1,1,0,81,false,stim,false,0,461,3,1,0,85784,WMM2,1111246,false,false,1457,image-keyboard-response,5
true,14,1,0,1,true,z,false,true,0.0-2.0-0.47-0.423-3.423,1,1,0,90,false,stim,false,1,683,3,0,2,85784,WMM2,1113434,false,false,1460,image-keyboard-response,6
true,14,0,0,0,true,q,false,true,0.0-2.0-0.47-0.424-3.424,1,1,0,81,false,stim,false,0,578,3,1,0,85784,WMM2,1115517,false,false,1463,image-keyboard-response,7
true,14,1,0,1,true,z,false,true,0.0-2.0-0.47-0.425-3.425,1,1,0,90,false,stim,false,1,487,3,0,2,85784,WMM2,1117513,false,false,1466,image-keyboard-response,8
true,14,1,0,1,true,z,false,false,0.0-2.0-0.47-0.426-3.426,1,1,0,90,false,stim,false,1,706,3,1,1,85784,WMM2,1119724,false,true,1469,image-keyboard-response,9
true,14,0,0,0,true,q,false,true,0.0-2.0-0.47-0.427-3.427,1,1,0,81,false,stim,false,0,1040,3,1,0,85784,WMM2,1122270,false,false,1472,image-keyboard-response,10
true,14,1,0,1,true,z,false,true,0.0-2.0-0.47-0.428-3.428,1,1,0,90,false,stim,false,1,446,3,0,2,85784,WMM2,1124226,false,false,1475,image-keyboard-response,11
true,14,1,0,1,true,z,false,true,0.0-2.0-0.47-0.429-3.429,1,1,0,90,false,stim,false,1,505,3,1,1,85784,WMM2,1126242,false,false,1478,image-keyboard-response,12
true,14,0,0,0,true,q,false,true,0.0-2.0-0.47-0.430-3.430,1,1,0,81,false,stim,false,0,448,3,1,0,85784,WMM2,1128199,false,false,1481,image-keyboard-response,13
true,14,1,0,1,true,z,false,true,0.0-2.0-0.47-0.431-3.431,1,1,0,90,false,stim,false,1,685,3,1,1,85784,WMM2,1130397,false,false,1484,image-keyboard-response,14
true,14,0,0,0,true,q,false,true,0.0-2.0-0.48-0.432-3.432,1,1,0,81,false,stim,false,0,800,3,1,0,85784,WMM2,1132701,false,false,1487,image-keyboard-response,15
true,14,1,0,1,true,z,false,true,0.0-2.0-0.48-0.433-3.433,1,1,0,90,false,stim,false,1,540,3,1,1,85784,WMM2,1134747,false,false,1490,image-keyboard-response,16
true,14,1,0,1,true,z,false,true,0.0-2.0-0.48-0.434-3.434,1,1,0,90,false,stim,false,1,716,3,0,2,85784,WMM2,1136971,false,false,1493,image-keyboard-response,17
true,14,1,0,1,true,z,false,true,0.0-2.0-0.48-0.435-3.435,1,1,0,90,false,stim,false,1,557,3,0,2,85784,WMM2,1139032,false,false,1496,image-keyboard-response,18
true,14,1,0,1,true,z,false,true,0.0-2.0-0.48-0.436-3.436,1,1,0,90,false,stim,false,1,1211,3,1,1,85784,WMM2,1141748,false,false,1499,image-keyboard-response,19
true,14,1,0,1,true,z,false,true,0.0-2.0-0.48-0.437-3.437,1,1,0,90,false,stim,false,1,939,3,0,2,85784,WMM2,1144197,false,false,1502,image-keyboard-response,20
true,14,0,0,0,true,q,false,false,0.0-2.0-0.48-0.438-3.438,1,1,0,81,false,stim,false,0,540,3,0,0,85784,WMM2,1146251,false,true,1505,image-keyboard-response,21
true,14,1,0,1,true,z,false,true,0.0-2.0-0.48-0.439-3.439,1,1,0,90,false,stim,false,1,562,3,1,1,85784,WMM2,1148320,false,false,1508,image-keyboard-response,22
true,14,0,0,0,true,q,false,true,0.0-2.0-0.48-0.440-3.440,1,1,0,81,false,stim,false,0,917,3,0,0,85784,WMM2,1150747,false,false,1511,image-keyboard-response,23
true,14,1,0,1,true,z,false,true,0.0-2.0-0.49-0.441-3.441,1,1,0,90,false,stim,false,1,940,3,1,1,85784,WMM2,1153195,false,false,1514,image-keyboard-response,24
true,14,1,0,1,true,z,false,true,0.0-2.0-0.49-0.442-3.442,1,1,0,90,false,stim,false,1,525,3,1,1,85784,WMM2,1155229,false,false,1517,image-keyboard-response,25
true,14,0,0,0,true,q,false,true,0.0-2.0-0.49-0.443-3.443,1,1,0,81,false,stim,false,0,775,3,0,0,85784,WMM2,1157510,false,false,1520,image-keyboard-response,26
true,14,1,0,1,true,z,false,true,0.0-2.0-0.49-0.444-3.444,1,1,0,90,false,stim,false,1,553,3,1,1,85784,WMM2,1159570,false,false,1523,image-keyboard-response,27
true,14,0,0,0,true,q,false,true,0.0-2.0-0.49-0.445-3.445,1,1,0,81,false,stim,false,0,848,3,0,0,85784,WMM2,1161924,false,false,1526,image-keyboard-response,28
true,14,1,0,1,true,z,false,true,0.0-2.0-0.49-0.446-3.446,1,1,0,90,false,stim,false,1,993,3,0,2,85784,WMM2,1164424,false,false,1529,image-keyboard-response,29
true,14,1,0,1,true,z,false,true,0.0-2.0-0.49-0.447-3.447,1,1,0,90,false,stim,false,1,529,3,0,2,85784,WMM2,1166460,false,false,1532,image-keyboard-response,30
true,15,1,1,2,false,d,false,false,0.0-2.0-0.49-0.448-3.448,0,1,0,90,true,stim,true,1,796,3,0,2,85784,WMM2,1168763,false,false,1535,image-keyboard-response,1
true,15,0,1,2,false,d,false,true,0.0-2.0-0.49-0.449-3.449,0,1,0,81,false,stim,true,0,591,3,0,0,85784,WMM2,1170857,false,true,1538,image-keyboard-response,2
true,15,1,1,2,false,d,false,false,0.0-2.0-0.50-0.450-3.450,0,1,0,90,false,stim,true,1,434,3,0,2,85784,WMM2,1172797,false,false,1541,image-keyboard-response,3
true,15,2,1,2,true,d,false,true,0.0-2.0-0.50-0.451-3.451,0,1,0,68,false,stim,false,1,575,3,0,2,85784,WMM2,1174877,false,false,1544,image-keyboard-response,4
true,15,0,1,2,false,d,false,false,0.0-2.0-0.50-0.452-3.452,0,1,0,81,false,stim,true,0,741,3,0,0,85784,WMM2,1177122,false,false,1547,image-keyboard-response,5
true,15,1,1,1,true,z,false,true,0.0-2.0-0.50-0.453-3.453,0,1,0,90,false,stim,false,1,502,3,1,1,85784,WMM2,1179130,false,false,1550,image-keyboard-response,6
true,15,0,1,2,false,d,false,false,0.0-2.0-0.50-0.454-3.454,0,1,0,81,false,stim,true,0,764,3,0,0,85784,WMM2,1181399,false,false,1553,image-keyboard-response,7
true,15,1,1,2,false,d,true,false,0.0-2.0-0.50-0.455-3.455,0,1,0,90,false,stim,false,0,626,3,0,0,85784,WMM2,1183530,false,false,1556,image-keyboard-response,8
true,15,2,1,2,true,d,false,true,0.0-2.0-0.50-0.456-3.456,0,1,0,68,false,stim,false,1,567,3,0,2,85784,WMM2,1185605,false,false,1559,image-keyboard-response,9
true,15,1,1,1,true,z,false,true,0.0-2.0-0.50-0.457-3.457,0,1,0,90,false,stim,false,1,704,3,1,1,85784,WMM2,1187817,false,false,1562,image-keyboard-response,10
true,15,1,1,1,true,z,false,true,0.0-2.0-0.50-0.458-3.458,0,1,0,90,false,stim,false,1,499,3,1,1,85784,WMM2,1189825,false,false,1565,image-keyboard-response,11
true,15,2,1,2,true,d,false,true,0.0-2.0-0.51-0.459-3.459,0,1,0,68,false,stim,false,1,614,3,0,2,85784,WMM2,1191946,false,false,1568,image-keyboard-response,12
true,15,1,1,1,true,z,false,true,0.0-2.0-0.51-0.460-3.460,0,1,0,90,false,stim,false,1,590,3,1,1,85784,WMM2,1194041,false,false,1571,image-keyboard-response,13
true,15,2,1,2,true,d,false,true,0.0-2.0-0.51-0.461-3.461,0,1,0,68,false,stim,false,0,980,3,0,0,85784,WMM2,1196530,false,false,1574,image-keyboard-response,14
true,15,1,1,1,true,z,false,true,0.0-2.0-0.51-0.462-3.462,0,1,0,90,false,stim,false,1,625,3,1,1,85784,WMM2,1198662,false,false,1577,image-keyboard-response,15
true,15,2,1,2,true,d,false,true,0.0-2.0-0.51-0.463-3.463,0,1,0,68,false,stim,false,0,723,3,0,0,85784,WMM2,1200889,false,false,1580,image-keyboard-response,16
true,15,2,1,2,true,d,false,true,0.0-2.0-0.51-0.464-3.464,0,1,0,68,false,stim,false,0,782,3,0,0,85784,WMM2,1203177,false,false,1583,image-keyboard-response,17
true,15,1,1,1,true,z,false,true,0.0-2.0-0.51-0.465-3.465,0,1,0,90,false,stim,false,1,580,3,1,1,85784,WMM2,1205265,false,false,1586,image-keyboard-response,18
true,15,2,1,2,true,d,false,true,0.0-2.0-0.51-0.466-3.466,0,1,0,68,false,stim,false,1,1249,3,0,2,85784,WMM2,1208020,false,false,1589,image-keyboard-response,19
true,15,2,1,2,true,d,false,true,0.0-2.0-0.51-0.467-3.467,0,1,0,68,false,stim,false,1,896,3,0,2,85784,WMM2,1210421,false,false,1592,image-keyboard-response,20
true,15,1,1,1,true,z,false,true,0.0-2.0-0.52-0.468-3.468,0,1,0,90,false,stim,false,1,847,3,0,1,85784,WMM2,1212777,false,false,1595,image-keyboard-response,21
true,15,2,1,2,true,d,false,true,0.0-2.0-0.52-0.469-3.469,0,1,0,68,false,stim,false,1,923,3,1,2,85784,WMM2,1215207,false,false,1598,image-keyboard-response,22
true,15,2,1,2,true,d,false,false,0.0-2.0-0.52-0.470-3.470,0,1,0,68,false,stim,false,1,754,3,1,2,85784,WMM2,1217477,false,true,1601,image-keyboard-response,23
true,15,1,1,1,true,z,false,true,0.0-2.0-0.52-0.471-3.471,0,1,0,90,false,stim,false,1,764,3,0,1,85784,WMM2,1219751,false,false,1604,image-keyboard-response,24
true,15,1,1,1,true,z,false,true,0.0-2.0-0.52-0.472-3.472,0,1,0,90,false,stim,false,1,729,3,0,1,85784,WMM2,1221990,false,false,1607,image-keyboard-response,25
true,15,2,1,2,true,d,false,true,0.0-2.0-0.52-0.473-3.473,0,1,0,68,false,stim,false,0,1190,3,1,0,85784,WMM2,1224685,false,false,1610,image-keyboard-response,26
true,15,2,1,2,true,d,false,false,0.0-2.0-0.52-0.474-3.474,0,1,0,68,false,stim,false,0,676,3,1,0,85784,WMM2,1226868,false,true,1613,image-keyboard-response,27
true,15,2,1,2,true,d,false,false,0.0-2.0-0.52-0.475-3.475,0,1,0,68,false,stim,false,0,754,3,1,0,85784,WMM2,1229128,false,true,1616,image-keyboard-response,28
true,15,2,1,2,true,d,false,true,0.0-2.0-0.52-0.476-3.476,0,1,0,68,false,stim,false,1,914,3,1,2,85784,WMM2,1231548,false,false,1619,image-keyboard-response,29
true,15,0,1,2,false,d,false,false,0.0-2.0-0.53-0.477-3.477,0,1,0,81,false,stim,true,0,576,3,1,0,85784,WMM2,1233628,false,false,1622,image-keyboard-response,30
true,16,1,4,1,true,z,false,true,0.0-2.0-0.53-0.478-3.478,1,0,1,90,true,stim,false,1,585,3,0,1,85784,WMM2,1235719,false,false,1625,image-keyboard-response,1
true,16,2,4,2,true,d,false,true,0.0-2.0-0.53-0.479-3.479,1,0,1,68,false,stim,false,2,714,3,1,2,85784,WMM2,1237940,false,false,1628,image-keyboard-response,2
true,16,1,4,2,false,d,true,false,0.0-2.0-0.53-0.480-3.480,1,0,1,90,false,stim,false,2,481,3,1,0,85784,WMM2,1239929,false,false,1631,image-keyboard-response,3
true,16,2,4,2,true,d,false,false,0.0-2.0-0.53-0.481-3.481,1,0,1,68,false,stim,false,2,598,3,1,0,85784,WMM2,1242031,false,true,1634,image-keyboard-response,4
true,16,2,4,2,true,d,false,true,0.0-2.0-0.53-0.482-3.482,1,0,1,68,false,stim,false,2,642,3,1,2,85784,WMM2,1244181,false,false,1637,image-keyboard-response,5
true,16,2,4,2,true,d,false,true,0.0-2.0-0.53-0.483-3.483,1,0,1,68,false,stim,false,2,584,3,1,2,85784,WMM2,1246274,false,false,1640,image-keyboard-response,6
true,16,1,4,1,true,z,false,true,0.0-2.0-0.53-0.484-3.484,1,0,1,90,false,stim,false,1,846,3,0,1,85784,WMM2,1248628,false,false,1643,image-keyboard-response,7
true,16,1,4,1,true,z,false,true,0.0-2.0-0.53-0.485-3.485,1,0,1,90,false,stim,false,1,660,3,0,1,85784,WMM2,1250791,false,false,1646,image-keyboard-response,8
true,16,1,4,1,true,z,false,true,0.0-2.0-0.54-0.486-3.486,1,0,1,90,false,stim,false,1,404,3,0,1,85784,WMM2,1252703,false,false,1649,image-keyboard-response,9
true,16,0,4,2,false,d,true,true,0.0-2.0-0.54-0.487-3.487,1,0,1,81,false,stim,false,2,803,3,1,0,85784,WMM2,1255015,false,true,1652,image-keyboard-response,10
true,16,1,4,1,true,z,false,true,0.0-2.0-0.54-0.488-3.488,1,0,1,90,false,stim,false,1,691,3,0,1,85784,WMM2,1257214,false,false,1655,image-keyboard-response,11
true,16,1,4,1,true,z,false,true,0.0-2.0-0.54-0.489-3.489,1,0,1,90,false,stim,false,1,751,3,0,1,85784,WMM2,1259470,false,false,1658,image-keyboard-response,12
true,16,0,4,2,false,d,true,false,0.0-2.0-0.54-0.490-3.490,1,0,1,81,false,stim,false,2,568,3,1,0,85784,WMM2,1261544,false,false,1661,image-keyboard-response,13
true,16,2,4,2,true,d,false,true,0.0-2.0-0.54-0.491-3.491,1,0,1,68,false,stim,false,2,662,3,1,2,85784,WMM2,1263709,false,false,1664,image-keyboard-response,14
true,16,2,4,2,true,d,false,true,0.0-2.0-0.54-0.492-3.492,1,0,1,68,false,stim,false,2,548,3,1,2,85784,WMM2,1265766,false,false,1667,image-keyboard-response,15
true,16,2,4,2,true,d,false,true,0.0-2.0-0.54-0.493-3.493,1,0,1,68,false,stim,false,2,669,3,1,2,85784,WMM2,1267940,false,false,1670,image-keyboard-response,16
true,16,0,4,2,false,d,true,false,0.0-2.0-0.54-0.494-3.494,1,0,1,81,false,stim,false,2,607,3,1,0,85784,WMM2,1270054,false,false,1673,image-keyboard-response,17
true,16,1,4,2,false,d,true,true,0.0-2.0-0.55-0.495-3.495,1,0,1,90,false,stim,false,2,665,3,1,0,85784,WMM2,1272228,false,true,1676,image-keyboard-response,18
true,16,1,4,1,true,z,false,true,0.0-2.0-0.55-0.496-3.496,1,0,1,90,false,stim,false,1,510,3,0,1,85784,WMM2,1274246,false,false,1679,image-keyboard-response,19
true,16,2,4,2,true,d,false,true,0.0-2.0-0.55-0.497-3.497,1,0,1,68,false,stim,false,2,559,3,1,2,85784,WMM2,1276310,false,false,1682,image-keyboard-response,20
true,16,1,4,1,true,z,false,true,0.0-2.0-0.55-0.498-3.498,1,0,1,90,false,stim,false,1,911,3,0,1,85784,WMM2,1278735,false,false,1685,image-keyboard-response,21
true,16,2,4,2,true,d,false,true,0.0-2.0-0.55-0.499-3.499,1,0,1,68,false,stim,false,2,753,3,1,2,85784,WMM2,1281000,false,false,1688,image-keyboard-response,22
true,16,1,4,2,false,d,true,false,0.0-2.0-0.55-0.500-3.500,1,0,1,90,false,stim,false,2,543,3,1,0,85784,WMM2,1283052,false,false,1691,image-keyboard-response,23
true,16,2,4,2,true,d,false,true,0.0-2.0-0.55-0.501-3.501,1,0,1,68,false,stim,false,2,712,3,1,2,85784,WMM2,1285271,false,false,1694,image-keyboard-response,24
true,16,1,4,1,true,z,false,false,0.0-2.0-0.55-0.502-3.502,1,0,1,90,false,stim,false,1,768,3,0,1,85784,WMM2,1287549,false,true,1697,image-keyboard-response,25
true,16,1,4,2,false,d,true,false,0.0-2.0-0.55-0.503-3.503,1,0,1,90,false,stim,false,2,535,3,1,0,85784,WMM2,1289589,false,false,1700,image-keyboard-response,26
true,16,2,4,2,true,d,false,true,0.0-2.0-0.56-0.504-3.504,1,0,1,68,false,stim,false,2,842,3,1,2,85784,WMM2,1291946,false,false,1703,image-keyboard-response,27
true,16,1,4,1,true,z,false,true,0.0-2.0-0.56-0.505-3.505,1,0,1,90,false,stim,false,1,817,3,0,1,85784,WMM2,1294273,false,false,1706,image-keyboard-response,28
true,16,2,4,2,true,d,false,true,0.0-2.0-0.56-0.506-3.506,1,0,1,68,false,stim,false,2,676,3,1,2,85784,WMM2,1296460,false,false,1709,image-keyboard-response,29
true,16,2,4,2,true,d,false,true,0.0-2.0-0.56-0.507-3.507,1,0,1,68,false,stim,false,2,518,3,1,2,85784,WMM2,1298488,false,false,1712,image-keyboard-response,30
true,16,2,4,2,true,d,false,true,0.0-2.0-0.56-0.508-3.508,1,0,1,68,false,stim,false,2,608,3,1,0,85784,WMM2,1300602,false,false,1715,image-keyboard-response,31
true,16,1,4,1,true,z,false,true,0.0-2.0-0.56-0.509-3.509,1,0,1,90,false,stim,false,1,595,3,0,1,85784,WMM2,1302704,false,false,1718,image-keyboard-response,32
true,16,1,4,1,true,z,false,true,0.0-2.0-0.56-0.510-3.510,1,0,1,90,false,stim,false,1,500,3,0,1,85784,WMM2,1304715,false,false,1721,image-keyboard-response,33
true,16,2,4,2,true,d,false,true,0.0-2.0-0.56-0.511-3.511,1,0,1,68,false,stim,false,2,503,3,1,0,85784,WMM2,1306726,false,false,1724,image-keyboard-response,34
true,16,2,4,2,true,d,false,false,0.0-2.0-0.56-0.512-3.512,1,0,1,68,false,stim,false,2,644,3,1,0,85784,WMM2,1308882,false,true,1727,image-keyboard-response,35
true,16,2,4,2,true,d,false,true,0.0-2.0-0.57-0.513-3.513,1,0,1,68,false,stim,false,2,542,3,1,0,85784,WMM2,1310931,false,false,1730,image-keyboard-response,36
true,16,2,4,2,true,d,false,true,0.0-2.0-0.57-0.514-3.514,1,0,1,68,false,stim,false,2,733,3,0,2,85784,WMM2,1313173,false,false,1733,image-keyboard-response,37
true,16,1,4,1,true,z,false,true,0.0-2.0-0.57-0.515-3.515,1,0,1,90,false,stim,false,1,511,3,1,1,85784,WMM2,1315191,false,false,1736,image-keyboard-response,38
true,16,2,4,2,true,d,false,true,0.0-2.0-0.57-0.516-3.516,1,0,1,68,false,stim,false,2,551,3,1,0,85784,WMM2,1317249,false,false,1739,image-keyboard-response,39
true,16,2,4,2,true,d,false,true,0.0-2.0-0.57-0.517-3.517,1,0,1,68,false,stim,false,2,726,3,0,2,85784,WMM2,1319481,false,false,1742,image-keyboard-response,40
true,16,2,4,2,true,d,false,false,0.0-2.0-0.57-0.518-3.518,1,0,1,68,false,stim,false,2,621,3,1,0,85784,WMM2,1321612,false,true,1745,image-keyboard-response,41
true,16,1,4,1,true,z,false,true,0.0-2.0-0.57-0.519-3.519,1,0,1,90,false,stim,false,1,577,3,1,1,85784,WMM2,1323700,false,false,1748,image-keyboard-response,42
true,16,1,4,1,true,z,false,true,0.0-2.0-0.57-0.520-3.520,1,0,1,90,false,stim,false,1,601,3,1,1,85784,WMM2,1325810,false,false,1751,image-keyboard-response,43
true,16,2,4,2,true,d,false,true,0.0-2.0-0.57-0.521-3.521,1,0,1,68,false,stim,false,2,924,3,0,2,85784,WMM2,1328240,false,false,1754,image-keyboard-response,44
true,17,2,2,1,false,z,false,false,0.0-2.0-0.58-0.522-3.522,1,1,0,68,true,stim,true,2,551,3,0,2,85784,WMM2,1330300,false,false,1757,image-keyboard-response,1
true,17,1,2,1,true,z,false,true,0.0-2.0-0.58-0.523-3.523,1,1,0,90,false,stim,false,1,741,3,1,1,85784,WMM2,1332550,false,false,1760,image-keyboard-response,2
true,17,1,2,1,true,z,false,true,0.0-2.0-0.58-0.524-3.524,1,1,0,90,false,stim,false,1,697,3,1,1,85784,WMM2,1334756,false,false,1763,image-keyboard-response,3
true,17,2,2,1,false,z,false,false,0.0-2.0-0.58-0.525-3.525,1,1,0,68,false,stim,true,2,591,3,0,2,85784,WMM2,1336854,false,false,1766,image-keyboard-response,4
true,17,2,2,2,true,d,false,true,0.0-2.0-0.58-0.526-3.526,1,1,0,68,false,stim,false,2,874,3,1,0,85784,WMM2,1339234,false,false,1769,image-keyboard-response,5
true,17,2,2,2,true,d,false,true,0.0-2.0-0.58-0.527-3.527,1,1,0,68,false,stim,false,2,618,3,1,0,85784,WMM2,1341357,false,false,1772,image-keyboard-response,6
true,17,0,2,1,false,z,true,false,0.0-2.0-0.58-0.528-3.528,1,1,0,81,false,stim,false,2,620,3,0,2,85784,WMM2,1343486,false,false,1775,image-keyboard-response,7
true,17,2,2,2,true,d,false,true,0.0-2.0-0.58-0.529-3.529,1,1,0,68,false,stim,false,2,641,3,1,0,85784,WMM2,1345637,false,false,1778,image-keyboard-response,8
true,17,1,2,1,true,z,false,true,0.0-2.0-0.58-0.530-3.530,1,1,0,90,false,stim,false,1,668,3,1,1,85784,WMM2,1347815,false,false,1781,image-keyboard-response,9
true,17,1,2,1,true,z,false,true,0.0-2.0-0.59-0.531-3.531,1,1,0,90,false,stim,false,2,430,3,0,2,85784,WMM2,1349753,false,false,1784,image-keyboard-response,10
true,17,1,2,1,true,z,false,false,0.0-2.0-0.59-0.532-3.532,1,1,0,90,false,stim,false,2,752,3,0,2,85784,WMM2,1352010,false,true,1787,image-keyboard-response,11
true,17,1,2,1,true,z,false,true,0.0-2.0-0.59-0.533-3.533,1,1,0,90,false,stim,false,1,656,3,1,1,85784,WMM2,1354174,false,false,1790,image-keyboard-response,12
true,17,2,2,2,true,d,false,true,0.0-2.0-0.59-0.534-3.534,1,1,0,68,false,stim,false,2,654,3,1,0,85784,WMM2,1356335,false,false,1793,image-keyboard-response,13
true,17,2,2,2,true,d,false,true,0.0-2.0-0.59-0.535-3.535,1,1,0,68,false,stim,false,2,724,3,1,0,85784,WMM2,1358567,false,false,1796,image-keyboard-response,14
true,17,1,2,1,true,z,false,false,0.0-2.0-0.59-0.536-3.536,1,1,0,90,false,stim,false,1,884,3,1,1,85784,WMM2,1360959,false,true,1799,image-keyboard-response,15
true,17,1,2,1,true,z,false,true,0.0-2.0-0.59-0.537-3.537,1,1,0,90,false,stim,false,2,581,3,0,2,85784,WMM2,1363049,false,false,1802,image-keyboard-response,16
true,17,2,2,2,true,d,false,true,0.0-2.0-0.59-0.538-3.538,1,1,0,68,false,stim,false,2,697,3,1,0,85784,WMM2,1365252,false,false,1805,image-keyboard-response,17
true,17,1,2,1,true,z,false,true,0.0-2.0-0.59-0.539-3.539,1,1,0,90,false,stim,false,1,480,3,1,1,85784,WMM2,1367238,false,false,1808,image-keyboard-response,18
true,17,1,2,1,true,z,false,true,0.0-2.0-0.60-0.540-3.540,1,1,0,90,false,stim,false,1,739,3,1,1,85784,WMM2,1369484,false,false,1811,image-keyboard-response,19
true,17,2,2,2,true,d,false,false,0.0-2.0-0.60-0.541-3.541,1,1,0,68,false,stim,false,2,612,3,1,0,85784,WMM2,1371603,false,true,1814,image-keyboard-response,20
true,17,1,2,1,true,z,false,true,0.0-2.0-0.60-0.542-3.542,1,1,0,90,false,stim,false,2,723,3,1,2,85784,WMM2,1373833,false,false,1817,image-keyboard-response,21
true,17,1,2,1,true,z,false,true,0.0-2.0-0.60-0.543-3.543,1,1,0,90,false,stim,false,1,1645,3,0,1,85784,WMM2,1376985,false,false,1820,image-keyboard-response,22
true,17,1,2,1,true,z,false,true,0.0-2.0-0.60-0.544-3.544,1,1,0,90,false,stim,false,2,816,3,1,2,85784,WMM2,1379304,false,false,1823,image-keyboard-response,23
true,17,1,2,1,true,z,false,true,0.0-2.0-0.60-0.545-3.545,1,1,0,90,false,stim,false,2,524,3,1,2,85784,WMM2,1381336,false,false,1826,image-keyboard-response,24
true,17,2,2,2,true,d,false,true,0.0-2.0-0.60-0.546-3.546,1,1,0,68,false,stim,false,2,606,3,0,0,85784,WMM2,1383452,false,false,1829,image-keyboard-response,25
true,17,2,2,2,true,d,false,true,0.0-2.0-0.60-0.547-3.547,1,1,0,68,false,stim,false,2,1260,3,0,0,85784,WMM2,1386218,false,false,1832,image-keyboard-response,26
true,17,1,2,1,true,z,false,true,0.0-2.0-0.60-0.548-3.548,1,1,0,90,false,stim,false,1,715,3,0,1,85784,WMM2,1388441,false,false,1835,image-keyboard-response,27
true,17,1,2,1,true,z,false,true,0.0-2.0-0.61-0.549-3.549,1,1,0,90,false,stim,false,1,1563,3,0,1,85784,WMM2,1391509,false,false,1838,image-keyboard-response,28
true,17,2,2,2,true,d,false,true,0.0-2.0-0.61-0.550-3.550,1,1,0,68,false,stim,false,2,551,3,0,0,85784,WMM2,1393571,false,false,1841,image-keyboard-response,29
true,17,1,2,1,true,z,false,true,0.0-2.0-0.61-0.551-3.551,1,1,0,90,false,stim,false,1,544,3,0,1,85784,WMM2,1395622,false,false,1844,image-keyboard-response,30
true,18,1,1,1,true,z,false,false,0.0-2.0-0.61-0.552-3.552,0,0,1,90,true,stim,false,1,757,3,1,2,85784,WMM2,1397883,false,true,1847,image-keyboard-response,1
true,18,2,1,0,false,q,false,true,0.0-2.0-0.61-0.553-3.553,0,0,1,68,false,stim,true,2,542,3,0,0,85784,WMM2,1399931,false,true,1850,image-keyboard-response,2
true,18,1,1,1,true,z,false,true,0.0-2.0-0.61-0.554-3.554,0,0,1,90,false,stim,false,1,499,3,1,2,85784,WMM2,1401937,false,false,1853,image-keyboard-response,3
true,18,2,1,0,false,q,false,false,0.0-2.0-0.61-0.555-3.555,0,0,1,68,false,stim,true,2,866,3,0,0,85784,WMM2,1404308,false,false,1856,image-keyboard-response,4
true,18,1,1,1,true,z,false,true,0.0-2.0-0.61-0.556-3.556,0,0,1,90,false,stim,false,1,1366,3,1,2,85784,WMM2,1407182,false,false,1859,image-keyboard-response,5
true,18,1,1,2,false,d,false,false,0.0-2.0-0.61-0.557-3.557,0,0,1,90,false,stim,true,1,2082,3,0,1,85784,WMM2,1410773,false,false,1862,image-keyboard-response,6
true,18,1,1,1,true,z,false,true,0.0-2.0-0.62-0.558-3.558,0,0,1,90,false,stim,false,1,924,3,1,2,85784,WMM2,1413209,false,false,1865,image-keyboard-response,7
true,18,2,1,0,false,q,false,false,0.0-2.0-0.62-0.559-3.559,0,0,1,68,false,stim,true,2,592,3,0,0,85784,WMM2,1415307,false,false,1868,image-keyboard-response,8
true,18,1,1,2,false,d,false,false,0.0-2.0-0.62-0.560-3.560,0,0,1,90,false,stim,true,1,591,3,0,1,85784,WMM2,1417407,false,false,1871,image-keyboard-response,9
true,18,1,1,1,true,z,false,true,0.0-2.0-0.62-0.561-3.561,0,0,1,90,false,stim,false,1,646,3,1,2,85784,WMM2,1419557,false,false,1874,image-keyboard-response,10
true,18,2,1,2,true,d,false,true,0.0-2.0-0.62-0.562-3.562,0,0,1,68,false,stim,false,1,567,3,0,1,85784,WMM2,1421630,false,false,1877,image-keyboard-response,11
true,18,1,1,1,true,z,false,true,0.0-2.0-0.62-0.563-3.563,0,0,1,90,false,stim,false,1,736,3,1,2,85784,WMM2,1423873,false,false,1880,image-keyboard-response,12
true,18,2,1,0,false,q,false,false,0.0-2.0-0.62-0.564-3.564,0,0,1,68,false,stim,true,2,684,3,0,0,85784,WMM2,1426062,false,false,1883,image-keyboard-response,13
true,18,0,1,0,true,q,false,true,0.0-2.0-0.62-0.565-3.565,0,0,1,81,false,stim,false,2,544,3,0,0,85784,WMM2,1428111,false,false,1886,image-keyboard-response,14
true,18,2,1,2,true,d,false,true,0.0-2.0-0.62-0.566-3.566,0,0,1,68,false,stim,false,1,484,3,0,1,85784,WMM2,1430102,false,false,1889,image-keyboard-response,15
false,18,-1,1,2,false,d,true,false,0.0-2.0-0.63-0.567-3.567,0,0,1,,false,stim,false,1,,3,0,1,85784,WMM2,1434612,false,false,1892,image-keyboard-response,16
true,18,2,1,2,true,d,false,true,0.0-2.0-0.63-0.568-3.568,0,0,1,68,false,stim,false,1,592,3,0,1,85784,WMM2,1436714,false,false,1895,image-keyboard-response,17
true,18,1,1,1,true,z,false,true,0.0-2.0-0.63-0.569-3.569,0,0,1,90,false,stim,false,1,756,3,1,2,85784,WMM2,1438977,false,false,1898,image-keyboard-response,18
true,18,1,1,1,true,z,false,true,0.0-2.0-0.63-0.570-3.570,0,0,1,90,false,stim,false,1,532,3,1,2,85784,WMM2,1441019,false,false,1901,image-keyboard-response,19
true,18,1,1,1,true,z,false,true,0.0-2.0-0.63-0.571-3.571,0,0,1,90,false,stim,false,1,544,3,1,2,85784,WMM2,1443072,false,false,1904,image-keyboard-response,20
true,18,0,1,0,true,q,false,true,0.0-2.0-0.63-0.572-3.572,0,0,1,81,false,stim,false,2,797,3,0,0,85784,WMM2,1445381,false,false,1907,image-keyboard-response,21
true,18,0,1,0,true,q,false,true,0.0-2.0-0.63-0.573-3.573,0,0,1,81,false,stim,false,2,518,3,0,0,85784,WMM2,1447406,false,false,1910,image-keyboard-response,22
true,18,0,1,0,true,q,false,true,0.0-2.0-0.63-0.574-3.574,0,0,1,81,false,stim,false,2,541,3,0,0,85784,WMM2,1449457,false,false,1913,image-keyboard-response,23
true,18,2,1,2,true,d,false,false,0.0-2.0-0.63-0.575-3.575,0,0,1,68,false,stim,false,1,961,3,0,1,85784,WMM2,1451925,false,true,1916,image-keyboard-response,24
true,18,1,1,1,true,z,false,false,0.0-2.0-0.64-0.576-3.576,0,0,1,90,false,stim,false,1,571,3,1,2,85784,WMM2,1454006,false,true,1919,image-keyboard-response,25
true,18,0,1,0,true,q,false,true,0.0-2.0-0.64-0.577-3.577,0,0,1,81,false,stim,false,2,640,3,0,0,85784,WMM2,1456154,false,false,1922,image-keyboard-response,26
true,18,1,1,1,true,z,false,true,0.0-2.0-0.64-0.578-3.578,0,0,1,90,false,stim,false,1,702,3,1,2,85784,WMM2,1458363,false,false,1925,image-keyboard-response,27
true,18,2,1,2,true,d,false,true,0.0-2.0-0.64-0.579-3.579,0,0,1,68,false,stim,false,1,547,3,1,1,85784,WMM2,1460414,false,false,1928,image-keyboard-response,28
true,18,1,1,1,true,z,false,true,0.0-2.0-0.64-0.580-3.580,0,0,1,90,false,stim,false,1,587,3,1,2,85784,WMM2,1462511,false,false,1931,image-keyboard-response,29
true,18,2,1,2,true,d,false,false,0.0-2.0-0.64-0.581-3.581,0,0,1,68,false,stim,false,1,873,3,1,1,85784,WMM2,1464889,false,true,1934,image-keyboard-response,30
true,18,0,1,0,true,q,false,true,0.0-2.0-0.64-0.582-3.582,0,0,1,81,false,stim,false,2,900,3,0,0,85784,WMM2,1467295,false,false,1937,image-keyboard-response,31
true,18,0,1,0,true,q,false,true,0.0-2.0-0.64-0.583-3.583,0,0,1,81,false,stim,false,2,485,3,0,0,85784,WMM2,1469286,false,false,1940,image-keyboard-response,32
true,18,2,1,2,true,d,false,true,0.0-2.0-0.64-0.584-3.584,0,0,1,68,false,stim,false,1,927,3,1,1,85784,WMM2,1471722,false,false,1943,image-keyboard-response,33
true,18,2,1,2,true,d,false,true,0.0-2.0-0.65-0.585-3.585,0,0,1,68,false,stim,false,1,651,3,1,1,85784,WMM2,1473883,false,false,1946,image-keyboard-response,34
true,19,0,2,2,false,d,false,false,0.0-2.0-0.65-0.586-3.586,0,1,1,81,true,stim,true,0,602,3,0,0,85784,WMM2,1475998,false,false,1949,image-keyboard-response,1
true,19,1,2,1,true,z,false,true,0.0-2.0-0.65-0.587-3.587,0,1,1,90,false,stim,false,1,733,3,1,2,85784,WMM2,1478235,false,false,1952,image-keyboard-response,2
true,19,2,2,2,true,d,false,true,0.0-2.0-0.65-0.588-3.588,0,1,1,68,false,stim,false,2,480,3,1,1,85784,WMM2,1480225,false,false,1955,image-keyboard-response,3
true,19,0,2,2,false,d,false,false,0.0-2.0-0.65-0.589-3.589,0,1,1,81,false,stim,true,0,574,3,0,0,85784,WMM2,1482305,false,false,1958,image-keyboard-response,4
true,19,1,2,1,true,z,false,true,0.0-2.0-0.65-0.590-3.590,0,1,1,90,false,stim,false,1,404,3,1,2,85784,WMM2,1484216,false,false,1961,image-keyboard-response,5
true,19,1,2,1,true,z,false,true,0.0-2.0-0.65-0.591-3.591,0,1,1,90,false,stim,false,1,526,3,1,2,85784,WMM2,1486250,false,false,1964,image-keyboard-response,6
true,19,2,2,2,true,d,false,true,0.0-2.0-0.65-0.592-3.592,0,1,1,68,false,stim,false,2,655,3,1,1,85784,WMM2,1488414,false,false,1967,image-keyboard-response,7
true,19,1,2,2,false,d,true,false,0.0-2.0-0.65-0.593-3.593,0,1,1,90,false,stim,false,0,643,3,0,0,85784,WMM2,1490567,false,false,1970,image-keyboard-response,8
true,19,1,2,1,true,z,false,true,0.0-2.0-0.66-0.594-3.594,0,1,1,90,false,stim,false,1,464,3,1,2,85784,WMM2,1492537,false,false,1973,image-keyboard-response,9
true,19,2,2,2,true,d,false,true,0.0-2.0-0.66-0.595-3.595,0,1,1,68,false,stim,false,0,1442,3,0,0,85784,WMM2,1495487,false,false,1976,image-keyboard-response,10
true,19,2,2,2,true,d,false,true,0.0-2.0-0.66-0.596-3.596,0,1,1,68,false,stim,false,2,997,3,1,1,85784,WMM2,1497993,false,false,1979,image-keyboard-response,11
true,19,1,2,1,true,z,false,true,0.0-2.0-0.66-0.597-3.597,0,1,1,90,false,stim,false,1,501,3,1,2,85784,WMM2,1499999,false,false,1982,image-keyboard-response,12
true,19,2,2,2,true,d,false,true,0.0-2.0-0.66-0.598-3.598,0,1,1,68,false,stim,false,2,718,3,1,1,85784,WMM2,1502222,false,false,1985,image-keyboard-response,13
true,19,1,2,1,true,z,false,true,0.0-2.0-0.66-0.599-3.599,0,1,1,90,false,stim,false,1,1258,3,1,2,85784,WMM2,1504990,false,false,1988,image-keyboard-response,14
true,19,2,2,2,true,d,false,true,0.0-2.0-0.66-0.600-3.600,0,1,1,68,false,stim,false,0,1253,3,0,0,85784,WMM2,1507748,false,false,1991,image-keyboard-response,15
true,19,2,2,2,true,d,false,true,0.0-2.0-0.66-0.601-3.601,0,1,1,68,false,stim,false,0,499,3,0,0,85784,WMM2,1509756,false,false,1994,image-keyboard-response,16
true,19,2,2,2,true,d,false,true,0.0-2.0-0.66-0.602-3.602,0,1,1,68,false,stim,false,2,979,3,1,1,85784,WMM2,1512245,false,false,1997,image-keyboard-response,17
true,19,2,2,2,true,d,false,true,0.0-2.0-0.67-0.603-3.603,0,1,1,68,false,stim,false,0,1021,3,0,0,85784,WMM2,1514773,false,false,2000,image-keyboard-response,18
true,19,2,2,2,true,d,false,true,0.0-2.0-0.67-0.604-3.604,0,1,1,68,false,stim,false,0,549,3,0,0,85784,WMM2,1516834,false,false,2003,image-keyboard-response,19
true,19,1,2,1,true,z,false,true,0.0-2.0-0.67-0.605-3.605,0,1,1,90,false,stim,false,1,887,3,1,2,85784,WMM2,1519227,false,false,2006,image-keyboard-response,20
true,19,2,2,2,true,d,false,false,0.0-2.0-0.67-0.606-3.606,0,1,1,68,false,stim,false,0,690,3,1,0,85784,WMM2,1521428,false,true,2009,image-keyboard-response,21
true,19,1,2,1,true,z,false,false,0.0-2.0-0.67-0.607-3.607,0,1,1,90,false,stim,false,1,592,3,1,2,85784,WMM2,1523526,false,true,2012,image-keyboard-response,22
true,19,1,2,1,true,z,false,true,0.0-2.0-0.67-0.608-3.608,0,1,1,90,false,stim,false,1,633,3,1,2,85784,WMM2,1525666,false,false,2015,image-keyboard-response,23
true,19,2,2,2,true,d,false,true,0.0-2.0-0.67-0.609-3.609,0,1,1,68,false,stim,false,2,770,3,0,1,85784,WMM2,1527941,false,false,2018,image-keyboard-response,24
true,19,2,2,2,true,d,false,true,0.0-2.0-0.67-0.610-3.610,0,1,1,68,false,stim,false,2,601,3,0,1,85784,WMM2,1530053,false,false,2021,image-keyboard-response,25
true,19,2,2,2,true,d,false,true,0.0-2.0-0.67-0.611-3.611,0,1,1,68,false,stim,false,2,820,3,0,1,85784,WMM2,1532378,false,false,2024,image-keyboard-response,26
true,19,1,2,1,true,z,false,true,0.0-2.0-0.68-0.612-3.612,0,1,1,90,false,stim,false,1,773,3,1,2,85784,WMM2,1534656,false,false,2027,image-keyboard-response,27
true,19,1,2,1,true,z,false,false,0.0-2.0-0.68-0.613-3.613,0,1,1,90,false,stim,false,1,568,3,1,2,85784,WMM2,1536732,false,true,2030,image-keyboard-response,28
true,19,2,2,2,true,d,false,true,0.0-2.0-0.68-0.614-3.614,0,1,1,68,false,stim,false,2,705,3,0,1,85784,WMM2,1538944,false,false,2033,image-keyboard-response,29
true,19,2,2,2,true,d,false,true,0.0-2.0-0.68-0.615-3.615,0,1,1,68,false,stim,false,2,601,3,0,1,85784,WMM2,1541053,false,false,2036,image-keyboard-response,30
true,20,2,4,2,true,d,false,false,0.0-2.0-0.68-0.616-3.616,1,0,1,68,true,stim,false,2,1100,3,1,0,85784,WMM2,1543663,false,true,2039,image-keyboard-response,1
true,20,2,4,2,true,d,false,false,0.0-2.0-0.68-0.617-3.617,1,0,1,68,false,stim,false,2,789,3,0,1,85784,WMM2,1545961,false,true,2042,image-keyboard-response,2
true,20,2,4,2,true,d,false,false,0.0-2.0-0.68-0.618-3.618,1,0,1,68,false,stim,false,2,846,3,1,0,85784,WMM2,1548316,false,true,2045,image-keyboard-response,3
true,20,0,4,2,false,d,true,false,0.0-2.0-0.68-0.619-3.619,1,0,1,81,false,stim,false,2,502,3,1,0,85784,WMM2,1550327,false,false,2048,image-keyboard-response,4
true,20,1,4,1,true,z,false,false,0.0-2.0-0.68-0.620-3.620,1,0,1,90,false,stim,false,1,589,3,1,2,85784,WMM2,1552420,false,true,2051,image-keyboard-response,5
true,20,1,4,2,false,d,true,false,0.0-2.0-0.69-0.621-3.621,1,0,1,90,false,stim,false,2,387,3,1,0,85784,WMM2,1554316,false,false,2054,image-keyboard-response,6
true,20,1,4,1,true,z,false,true,0.0-2.0-0.69-0.622-3.622,1,0,1,90,false,stim,false,1,724,3,1,2,85784,WMM2,1556547,false,false,2057,image-keyboard-response,7
true,20,1,4,1,true,z,false,true,0.0-2.0-0.69-0.623-3.623,1,0,1,90,false,stim,false,1,583,3,1,2,85784,WMM2,1558639,false,false,2060,image-keyboard-response,8
true,20,2,4,2,true,d,false,true,0.0-2.0-0.69-0.624-3.624,1,0,1,68,false,stim,false,2,530,3,1,0,85784,WMM2,1560676,false,false,2063,image-keyboard-response,9
true,20,1,4,1,true,z,false,true,0.0-2.0-0.69-0.625-3.625,1,0,1,90,false,stim,false,1,718,3,1,2,85784,WMM2,1562900,false,false,2066,image-keyboard-response,10
true,20,2,4,2,true,d,false,true,0.0-2.0-0.69-0.626-3.626,1,0,1,68,false,stim,false,2,655,3,0,1,85784,WMM2,1565064,false,false,2069,image-keyboard-response,11
true,20,2,4,2,true,d,false,false,0.0-2.0-0.69-0.627-3.627,1,0,1,68,false,stim,false,2,744,3,0,1,85784,WMM2,1567312,false,true,2072,image-keyboard-response,12
true,20,0,4,2,false,d,true,false,0.0-2.0-0.69-0.628-3.628,1,0,1,81,false,stim,false,2,629,3,0,1,85784,WMM2,1569448,false,false,2075,image-keyboard-response,13
true,20,2,4,2,true,d,false,true,0.0-2.0-0.69-0.629-3.629,1,0,1,68,false,stim,false,2,834,3,1,0,85784,WMM2,1571789,false,false,2078,image-keyboard-response,14
true,20,1,4,1,true,z,false,false,0.0-2.0-0.70-0.630-3.630,1,0,1,90,false,stim,false,1,501,3,1,2,85784,WMM2,1573796,false,true,2081,image-keyboard-response,15
true,20,1,4,1,true,z,false,true,0.0-2.0-0.70-0.631-3.631,1,0,1,90,false,stim,false,1,519,3,1,2,85784,WMM2,1575820,false,false,2084,image-keyboard-response,16
true,20,2,4,2,true,d,false,true,0.0-2.0-0.70-0.632-3.632,1,0,1,68,false,stim,false,2,506,3,1,0,85784,WMM2,1577835,false,false,2087,image-keyboard-response,17
true,20,2,4,2,true,d,false,true,0.0-2.0-0.70-0.633-3.633,1,0,1,68,false,stim,false,2,471,3,1,0,85784,WMM2,1579813,false,false,2090,image-keyboard-response,18
true,20,1,4,1,true,z,false,true,0.0-2.0-0.70-0.634-3.634,1,0,1,90,false,stim,false,1,569,3,1,2,85784,WMM2,1581888,false,false,2093,image-keyboard-response,19
true,20,2,4,2,true,d,false,true,0.0-2.0-0.70-0.635-3.635,1,0,1,68,false,stim,false,2,620,3,1,0,85784,WMM2,1584014,false,false,2096,image-keyboard-response,20
true,20,0,4,2,false,d,true,false,0.0-2.0-0.70-0.636-3.636,1,0,1,81,false,stim,false,2,990,3,0,1,85784,WMM2,1586513,false,false,2099,image-keyboard-response,21
true,20,1,4,2,false,d,true,false,0.0-2.0-0.70-0.637-3.637,1,0,1,90,false,stim,false,2,581,3,0,1,85784,WMM2,1588611,false,false,2102,image-keyboard-response,22
true,20,2,4,2,true,d,false,true,0.0-2.0-0.70-0.638-3.638,1,0,1,68,false,stim,false,2,442,3,0,1,85784,WMM2,1590565,false,false,2105,image-keyboard-response,23
true,20,2,4,2,true,d,false,true,0.0-2.0-0.71-0.639-3.639,1,0,1,68,false,stim,false,2,603,3,1,0,85784,WMM2,1592678,false,false,2108,image-keyboard-response,24
