answered,blockNum,choice,condition,corResp,correct,correct_response,explo,fb,internal_node_id,isStable_1,isStable_2,isStable_3,key_press,newBlock,part,persev,persevResp,rt,sessNum,stableAS,stimulus,subject,task,time_elapsed,training,trap,trial_index,trial_type,trialsInBlock
true,1,1,0,2,false,d,true,false,0.0-2.0-0.0-0.0-3.0,0,0,0,90,true,stim,false,-1,2208.1450000005134,0,0,2,86523,WMM2,198448,false,false,123,image-keyboard-response,1
true,1,0,0,2,false,d,true,true,0.0-2.0-0.0-0.1-3.1,0,0,0,81,false,stim,false,-1,654.9700000004959,0,0,1,86523,WMM2,200613,false,true,126,image-keyboard-response,2
true,1,1,0,1,true,z,false,true,0.0-2.0-0.0-0.2-3.2,0,0,0,90,false,stim,false,-1,948.2500000003783,0,0,0,86523,WMM2,203073,false,false,129,image-keyboard-response,3
true,1,0,0,2,false,d,true,false,0.0-2.0-0.0-0.3-3.3,0,0,0,81,false,stim,false,-1,757.4400000003225,0,0,1,86523,WMM2,205340,false,false,132,image-keyboard-response,4
true,1,2,0,2,true,d,false,true,0.0-2.0-0.0-0.4-3.4,0,0,0,68,false,stim,false,-1,787.515000000014,0,0,1,86523,WMM2,207649,false,false,135,image-keyboard-response,5
true,1,0,0,2,false,d,true,true,0.0-2.0-0.0-0.5-3.5,0,0,0,81,false,stim,false,-1,697.8799999997136,0,0,2,86523,WMM2,209857,false,true,138,image-keyboard-response,6
true,1,0,0,1,false,z,true,false,0.0-2.0-0.0-0.6-3.6,0,0,0,81,false,stim,false,-1,435.90500000026077,0,0,0,86523,WMM2,211814,false,false,141,image-keyboard-response,7
true,1,1,0,1,true,z,false,true,0.0-2.0-0.0-0.7-3.7,0,0,0,90,false,stim,false,-1,459.1549999995332,0,0,0,86523,WMM2,213791,false,false,144,image-keyboard-response,8
true,1,2,0,2,true,d,false,true,0.0-2.0-0.0-0.8-3.8,0,0,0,68,false,stim,false,-1,695.1600000002072,0,0,2,86523,WMM2,215997,false,false,147,image-keyboard-response,9
true,1,2,0,2,true,d,false,true,0.0-2.0-0.1-0.9-3.9,0,0,0,68,false,stim,false,-1,601.2849999997125,0,0,2,86523,WMM2,218122,false,false,150,image-keyboard-response,10
true,1,2,0,2,true,d,false,true,0.0-2.0-0.1-0.10-3.10,0,0,0,68,false,stim,false,-1,530.0950000000594,0,0,2,86523,WMM2,220172,false,false,153,image-keyboard-response,11
true,1,1,0,2,false,d,true,false,0.0-2.0-0.1-0.11-3.11,0,0,0,90,false,stim,false,-1,1059.7950000001292,0,0,1,86523,WMM2,222750,false,false,156,image-keyboard-response,12
true,1,1,0,1,true,z,false,true,0.0-2.0-0.1-0.12-3.12,0,0,0,90,false,stim,false,-1,508.26999999937834,0,0,0,86523,WMM2,224783,false,false,159,image-keyboard-response,13
true,1,0,0,2,false,d,true,false,0.0-2.0-0.1-0.13-3.13,0,0,0,81,false,stim,false,-1,474.4499999996915,0,0,1,86523,WMM2,226766,false,false,162,image-keyboard-response,14
true,1,1,0,1,true,z,false,true,0.0-2.0-0.1-0.14-3.14,0,0,0,90,false,stim,false,-1,696.6099999999569,0,0,0,86523,WMM2,228988,false,false,165,image-keyboard-response,15
true,1,2,0,2,true,d,false,true,0.0-2.0-0.1-0.15-3.15,0,0,0,68,false,stim,false,-1,395.7549999995681,0,0,1,86523,WMM2,230899,false,false,168,image-keyboard-response,16
true,1,2,0,2,true,d,false,true,0.0-2.0-0.1-0.16-3.16,0,0,0,68,false,stim,false,-1,629.1099999998405,0,0,2,86523,WMM2,233048,false,false,171,image-keyboard-response,17
true,1,1,0,1,true,z,false,true,0.0-2.0-0.1-0.17-3.17,0,0,0,90,false,stim,false,-1,695.7749999992375,0,0,0,86523,WMM2,235251,false,false,174,image-keyboard-response,18
true,1,2,0,2,true,d,false,true,0.0-2.0-0.2-0.18-3.18,0,0,0,68,false,stim,false,-1,724.0599999995611,0,0,2,86523,WMM2,237486,false,false,177,image-keyboard-response,19
true,1,1,0,1,true,z,false,true,0.0-2.0-0.2-0.19-3.19,0,0,0,90,false,stim,false,-1,646.5899999993853,0,0,0,86523,WMM2,239642,false,false,180,image-keyboard-response,20
true,1,1,0,1,true,z,false,false,0.0-2.0-0.2-0.20-3.20,0,0,0,90,false,stim,false,-1,484.6349999998056,0,0,0,86523,WMM2,241660,false,true,183,image-keyboard-response,21
true,1,2,0,2,true,d,false,false,0.0-2.0-0.2-0.21-3.21,0,0,0,68,false,stim,false,-1,953.7399999999325,0,0,1,86523,WMM2,244147,false,true,186,image-keyboard-response,22
true,1,0,0,2,false,d,true,false,0.0-2.0-0.2-0.22-3.22,0,0,0,81,false,stim,false,-1,583.6749999998428,0,1,1,86523,WMM2,246248,false,false,189,image-keyboard-response,23
true,1,2,0,2,true,d,false,true,0.0-2.0-0.2-0.23-3.23,0,0,0,68,false,stim,false,-1,905.2000000001281,0,0,2,86523,WMM2,248681,false,false,192,image-keyboard-response,24
true,1,2,0,2,true,d,false,true,0.0-2.0-0.2-0.24-3.24,0,0,0,68,false,stim,false,-1,673.4550000001036,0,0,2,86523,WMM2,250869,false,false,195,image-keyboard-response,25
true,1,1,0,2,false,d,true,false,0.0-2.0-0.2-0.25-3.25,0,0,0,90,false,stim,false,-1,363.6100000003353,0,1,1,86523,WMM2,252754,false,false,198,image-keyboard-response,26
true,1,0,0,1,false,z,true,false,0.0-2.0-0.2-0.26-3.26,0,0,0,81,false,stim,false,-1,1217.1750000006869,0,1,0,86523,WMM2,255496,false,false,201,image-keyboard-response,27
true,1,1,0,1,true,z,false,true,0.0-2.0-0.3-0.27-3.27,0,0,0,90,false,stim,false,-1,580.6599999996251,0,1,0,86523,WMM2,257591,false,false,204,image-keyboard-response,28
true,1,1,0,1,true,z,false,true,0.0-2.0-0.3-0.28-3.28,0,0,0,90,false,stim,false,-1,467.32000000064727,0,1,0,86523,WMM2,259567,false,false,207,image-keyboard-response,29
true,1,2,0,2,true,d,false,true,0.0-2.0-0.3-0.29-3.29,0,0,0,68,false,stim,false,-1,561.2499999997672,0,0,2,86523,WMM2,261647,false,false,210,image-keyboard-response,30
true,1,2,0,2,true,d,false,false,0.0-2.0-0.3-0.30-3.30,0,0,0,68,false,stim,false,-1,664.0999999999767,0,0,2,86523,WMM2,263829,false,true,213,image-keyboard-response,31
true,1,0,0,2,false,d,true,false,0.0-2.0-0.3-0.31-3.31,0,0,0,81,false,stim,false,-1,788.1050000005052,0,0,2,86523,WMM2,266126,false,false,216,image-keyboard-response,32
true,2,1,3,2,false,d,true,true,0.0-2.0-0.3-0.32-3.32,1,1,0,90,true,stim,false,2,671.515000000014,0,1,1,86523,WMM2,268315,false,true,219,image-keyboard-response,1
true,2,1,3,1,true,z,false,false,0.0-2.0-0.3-0.33-3.33,1,1,0,90,false,stim,false,1,573.9750000002678,0,1,0,86523,WMM2,270404,false,true,222,image-keyboard-response,2
true,2,1,3,2,false,d,true,false,0.0-2.0-0.3-0.34-3.34,1,1,0,90,false,stim,false,2,468.55500000034226,0,1,1,86523,WMM2,272394,false,false,225,image-keyboard-response,3
true,2,0,3,2,false,d,true,true,0.0-2.0-0.3-0.35-3.35,1,1,0,81,false,stim,false,2,638.0799999997253,0,1,1,86523,WMM2,274540,false,true,228,image-keyboard-response,4
true,2,1,3,1,true,z,false,true,0.0-2.0-0.4-0.36-3.36,1,1,0,90,false,stim,false,1,1409.9550000000745,0,1,0,86523,WMM2,277483,false,false,231,image-keyboard-response,5
true,2,0,3,1,false,z,true,true,0.0-2.0-0.4-0.37-3.37,1,1,0,81,false,stim,false,2,665.1650000003283,0,0,2,86523,WMM2,279673,false,true,234,image-keyboard-response,6
true,2,0,3,2,false,d,true,false,0.0-2.0-0.4-0.38-3.38,1,1,0,81,false,stim,false,2,681.9450000002398,0,1,1,86523,WMM2,281878,false,false,237,image-keyboard-response,7
true,2,1,3,1,true,z,false,false,0.0-2.0-0.4-0.39-3.39,1,1,0,90,false,stim,false,1,812.5750000008265,0,1,0,86523,WMM2,284223,false,true,240,image-keyboard-response,8
true,2,0,3,1,false,z,true,false,0.0-2.0-0.4-0.40-3.40,1,1,0,81,false,stim,false,1,589.3500000001513,0,1,0,86523,WMM2,286333,false,false,243,image-keyboard-response,9
true,2,0,3,1,false,z,true,false,0.0-2.0-0.4-0.41-3.41,1,1,0,81,false,stim,false,2,1363.9700000003795,0,0,2,86523,WMM2,289224,false,false,246,image-keyboard-response,10
true,2,1,3,1,true,z,false,true,0.0-2.0-0.4-0.42-3.42,1,1,0,90,false,stim,false,2,760.704999999667,0,0,2,86523,WMM2,291493,false,false,249,image-keyboard-response,11
true,2,0,3,2,false,d,true,false,0.0-2.0-0.4-0.43-3.43,1,1,0,81,false,stim,false,2,1351.1699999999255,0,1,1,86523,WMM2,294353,false,false,252,image-keyboard-response,12
true,2,1,3,2,false,d,true,false,0.0-2.0-0.4-0.44-3.44,1,1,0,90,false,stim,false,2,718.3999999997322,0,1,1,86523,WMM2,296596,false,false,255,image-keyboard-response,13
true,2,2,3,1,false,z,true,false,0.0-2.0-0.5-0.45-3.45,1,1,0,68,false,stim,false,1,998.6499999995576,0,1,0,86523,WMM2,299109,false,false,258,image-keyboard-response,14
false,2,-1,3,1,false,z,true,false,0.0-2.0-0.5-0.46-3.46,1,1,0,,false,stim,false,2,,0,0,2,86523,WMM2,303646,false,false,261,image-keyboard-response,15
true,2,1,3,2,false,d,true,false,0.0-2.0-0.5-0.47-3.47,1,1,0,90,false,stim,false,2,1120.1049999999814,0,1,1,86523,WMM2,306275,false,false,264,image-keyboard-response,16
true,2,0,3,2,false,d,true,false,0.0-2.0-0.5-0.48-3.48,1,1,0,81,false,stim,false,2,711.0800000000163,0,1,1,86523,WMM2,308520,false,false,267,image-keyboard-response,17
true,2,2,3,2,true,d,false,true,0.0-2.0-0.5-0.49-3.49,1,1,0,68,false,stim,false,2,331.57500000012806,0,1,1,86523,WMM2,310375,false,false,270,image-keyboard-response,18
true,2,2,3,1,false,z,true,true,0.0-2.0-0.5-0.50-3.50,1,1,0,68,false,stim,false,1,1034.1549999993877,0,1,0,86523,WMM2,312944,false,true,273,image-keyboard-response,19
true,2,2,3,1,false,z,true,false,0.0-2.0-0.5-0.51-3.51,1,1,0,68,false,stim,false,1,731.8749999995343,0,1,0,86523,WMM2,315213,false,false,276,image-keyboard-response,20
true,2,1,3,1,true,z,false,true,0.0-2.0-0.5-0.52-3.52,1,1,0,90,false,stim,false,2,1322.8349999999627,0,0,2,86523,WMM2,318063,false,false,279,image-keyboard-response,21
true,2,1,3,1,true,z,false,true,0.0-2.0-0.5-0.53-3.53,1,1,0,90,false,stim,false,2,598.9949999993551,0,0,2,86523,WMM2,320177,false,false,282,image-keyboard-response,22
true,2,2,3,1,false,z,true,false,0.0-2.0-0.6-0.54-3.54,1,1,0,68,false,stim,false,1,1746.3049999996438,0,1,0,86523,WMM2,323456,false,false,285,image-keyboard-response,23
true,2,1,3,2,false,d,true,false,0.0-2.0-0.6-0.55-3.55,1,1,0,90,false,stim,false,2,672.0599999998813,0,1,1,86523,WMM2,325638,false,false,288,image-keyboard-response,24
true,2,0,3,1,false,z,true,false,0.0-2.0-0.6-0.56-3.56,1,1,0,81,false,stim,false,1,906.2850000000326,0,1,0,86523,WMM2,328069,false,false,291,image-keyboard-response,25
true,2,1,3,2,false,d,true,false,0.0-2.0-0.6-0.57-3.57,1,1,0,90,false,stim,false,2,597.2200000005541,0,1,1,86523,WMM2,330189,false,false,294,image-keyboard-response,26
true,2,2,3,1,false,z,true,false,0.0-2.0-0.6-0.58-3.58,1,1,0,68,false,stim,false,1,718.9699999999139,0,1,0,86523,WMM2,332430,false,false,297,image-keyboard-response,27
true,2,0,3,2,false,d,true,false,0.0-2.0-0.6-0.59-3.59,1,1,0,81,false,stim,false,2,1592.5450000003912,0,1,1,86523,WMM2,335554,false,false,300,image-keyboard-response,28
true,2,1,3,1,true,z,false,true,0.0-2.0-0.6-0.60-3.60,1,1,0,90,false,stim,false,2,1070.6550000004354,0,0,2,86523,WMM2,338166,false,false,303,image-keyboard-response,29
true,2,1,3,1,true,z,false,true,0.0-2.0-0.6-0.61-3.61,1,1,0,90,false,stim,false,2,416.79999999998836,0,0,2,86523,WMM2,340111,false,false,306,image-keyboard-response,30
true,2,1,3,1,true,z,false,true,0.0-2.0-0.6-0.62-3.62,1,1,0,90,false,stim,false,2,374.52000000030966,0,0,2,86523,WMM2,342019,false,false,309,image-keyboard-response,31
true,2,2,3,2,true,d,false,true,0.0-2.0-0.7-0.63-3.63,1,1,0,68,false,stim,false,2,808.2899999999208,0,1,1,86523,WMM2,344354,false,false,312,image-keyboard-response,32
true,2,0,3,1,false,z,true,false,0.0-2.0-0.7-0.64-3.64,1,1,0,81,false,stim,false,1,812.8049999995856,0,1,0,86523,WMM2,346692,false,false,315,image-keyboard-response,33
true,2,2,3,2,true,d,false,true,0.0-2.0-0.7-0.65-3.65,1,1,0,68,false,stim,false,2,584.9999999991269,0,1,1,86523,WMM2,348813,false,false,318,image-keyboard-response,34
true,2,1,3,1,true,z,false,true,0.0-2.0-0.7-0.66-3.66,1,1,0,90,false,stim,false,2,452.90500000014435,0,0,2,86523,WMM2,350775,false,false,321,image-keyboard-response,35
true,2,2,3,1,false,z,true,false,0.0-2.0-0.7-0.67-3.67,1,1,0,68,false,stim,false,1,1196.475000000617,0,1,0,86523,WMM2,353497,false,false,324,image-keyboard-response,36
true,2,1,3,1,true,z,false,true,0.0-2.0-0.7-0.68-3.68,1,1,0,90,false,stim,false,2,640.2399999997579,0,0,2,86523,WMM2,355676,false,false,327,image-keyboard-response,37
true,2,2,3,2,true,d,false,true,0.0-2.0-0.7-0.69-3.69,1,1,0,68,false,stim,false,2,795.4700000000303,0,1,1,86523,WMM2,358001,false,false,330,image-keyboard-response,38
true,2,1,3,1,true,z,false,true,0.0-2.0-0.7-0.70-3.70,1,1,0,90,false,stim,false,2,528.0050000001211,0,0,2,86523,WMM2,360066,false,false,333,image-keyboard-response,39
true,2,1,3,1,true,z,false,true,0.0-2.0-0.7-0.71-3.71,1,1,0,90,false,stim,false,1,496.844999999681,0,1,0,86523,WMM2,362102,false,false,336,image-keyboard-response,40
true,2,1,3,1,true,z,false,true,0.0-2.0-0.8-0.72-3.72,1,1,0,90,false,stim,false,1,479.1749999994645,0,1,0,86523,WMM2,364117,false,false,339,image-keyboard-response,41
true,2,1,3,1,true,z,false,true,0.0-2.0-0.8-0.73-3.73,1,1,0,90,false,stim,false,2,531.5000000000582,0,1,2,86523,WMM2,366163,false,false,342,image-keyboard-response,42
true,2,1,3,1,true,z,false,false,0.0-2.0-0.8-0.74-3.74,1,1,0,90,false,stim,false,1,604.6900000001187,0,0,0,86523,WMM2,368292,false,true,345,image-keyboard-response,43
true,2,0,3,1,false,z,true,false,0.0-2.0-0.8-0.75-3.75,1,1,0,81,false,stim,false,1,585.8749999997672,0,0,0,86523,WMM2,370408,false,false,348,image-keyboard-response,44
true,2,2,3,2,true,d,false,true,0.0-2.0-0.8-0.76-3.76,1,1,0,68,false,stim,false,2,1195.9099999994505,0,0,1,86523,WMM2,373134,false,false,351,image-keyboard-response,45
true,2,2,3,2,true,d,false,true,0.0-2.0-0.8-0.77-3.77,1,1,0,68,false,stim,false,2,679.4849999996368,0,0,1,86523,WMM2,375350,false,false,354,image-keyboard-response,46
true,2,2,3,1,false,z,false,false,0.0-2.0-0.8-0.78-3.78,1,1,0,68,false,stim,true,2,1011.4199999998091,0,1,2,86523,WMM2,377883,false,false,357,image-keyboard-response,47
true,2,2,3,2,true,d,false,true,0.0-2.0-0.8-0.79-3.79,1,1,0,68,false,stim,false,2,888.2899999998626,0,0,1,86523,WMM2,380308,false,false,360,image-keyboard-response,48
true,2,1,3,1,true,z,false,true,0.0-2.0-0.8-0.80-3.80,1,1,0,90,false,stim,false,2,506.6850000002887,0,1,2,86523,WMM2,382347,false,false,363,image-keyboard-response,49
true,2,1,3,1,true,z,false,true,0.0-2.0-0.9-0.81-3.81,1,1,0,90,false,stim,false,2,805.0599999997066,0,1,2,86523,WMM2,384691,false,false,366,image-keyboard-response,50
true,2,1,3,2,false,d,true,true,0.0-2.0-0.9-0.82-3.82,1,1,0,90,false,stim,false,2,1242.3600000001607,0,0,1,86523,WMM2,387463,false,true,369,image-keyboard-response,51
true,3,2,1,0,false,q,true,false,0.0-2.0-0.9-0.83-3.83,0,0,1,68,true,stim,false,1,1467.1699999999255,0,0,0,86523,WMM2,390457,false,false,372,image-keyboard-response,1
true,3,1,1,0,false,q,false,false,0.0-2.0-0.9-0.84-3.84,0,0,1,90,false,stim,true,1,456.4950000003446,0,0,0,86523,WMM2,392445,false,false,375,image-keyboard-response,2
true,3,0,1,0,true,q,false,true,0.0-2.0-0.9-0.85-3.85,0,0,1,81,false,stim,false,1,562.9800000006217,0,0,0,86523,WMM2,394533,false,false,378,image-keyboard-response,3
true,3,1,1,1,true,z,false,true,0.0-2.0-0.9-0.86-3.86,0,0,1,90,false,stim,false,1,969.3749999996508,0,1,2,86523,WMM2,397041,false,false,381,image-keyboard-response,4
true,3,1,1,1,true,z,false,true,0.0-2.0-0.9-0.87-3.87,0,0,1,90,false,stim,false,1,410.1949999994831,0,1,2,86523,WMM2,398982,false,false,384,image-keyboard-response,5
true,3,2,1,0,false,q,false,false,0.0-2.0-0.9-0.88-3.88,0,0,1,68,false,stim,true,2,434.0800000000163,0,0,1,86523,WMM2,400941,false,false,387,image-keyboard-response,6
true,3,0,1,0,true,q,false,false,0.0-2.0-0.9-0.89-3.89,0,0,1,81,false,stim,false,2,334.7499999999418,0,0,1,86523,WMM2,402807,false,true,390,image-keyboard-response,7
true,3,1,1,1,true,z,false,true,0.0-2.0-0.10-0.90-3.90,0,0,1,90,false,stim,false,1,1082.734999999986,0,1,2,86523,WMM2,405422,false,false,393,image-keyboard-response,8
true,3,1,1,0,false,q,true,true,0.0-2.0-0.10-0.91-3.91,0,0,1,90,false,stim,false,2,384.7700000005425,0,0,1,86523,WMM2,407340,false,true,396,image-keyboard-response,9
true,3,1,1,0,false,q,true,true,0.0-2.0-0.10-0.92-3.92,0,0,1,90,false,stim,false,2,436.7549999997136,0,0,1,86523,WMM2,409309,false,true,399,image-keyboard-response,10
true,3,1,1,1,true,z,false,true,0.0-2.0-0.10-0.93-3.93,0,0,1,90,false,stim,false,1,1118.1999999998952,0,1,2,86523,WMM2,411967,false,false,402,image-keyboard-response,11
true,3,0,1,0,true,q,false,true,0.0-2.0-0.10-0.94-3.94,0,0,1,81,false,stim,false,1,769.5249999997322,0,0,0,86523,WMM2,414266,false,false,405,image-keyboard-response,12
true,3,0,1,0,true,q,false,true,0.0-2.0-0.10-0.95-3.95,0,0,1,81,false,stim,false,1,540.6350000003004,0,0,0,86523,WMM2,416337,false,false,408,image-keyboard-response,13
true,3,0,1,0,true,q,false,true,0.0-2.0-0.10-0.96-3.96,0,0,1,81,false,stim,false,1,503.0299999998533,0,0,0,86523,WMM2,418367,false,false,411,image-keyboard-response,14
true,3,1,1,1,true,z,false,true,0.0-2.0-0.10-0.97-3.97,0,0,1,90,false,stim,false,1,789.7150000007823,0,1,2,86523,WMM2,420681,false,false,414,image-keyboard-response,15
true,3,1,1,0,false,q,true,false,0.0-2.0-0.10-0.98-3.98,0,0,1,90,false,stim,false,2,740.2549999996554,0,0,1,86523,WMM2,422954,false,false,417,image-keyboard-response,16
true,3,0,1,0,true,q,false,true,0.0-2.0-0.11-0.99-3.99,0,0,1,81,false,stim,false,1,686.789999999688,0,0,0,86523,WMM2,425157,false,false,420,image-keyboard-response,17
true,3,0,1,0,true,q,false,false,0.0-2.0-0.11-0.100-3.100,0,0,1,81,false,stim,false,1,424.9150000005029,0,0,0,86523,WMM2,427107,false,true,423,image-keyboard-response,18
true,3,1,1,1,true,z,false,true,0.0-2.0-0.11-0.101-3.101,0,0,1,90,false,stim,false,1,2021.2099999999045,0,1,2,86523,WMM2,430652,false,false,426,image-keyboard-response,19
true,3,1,1,0,false,q,true,false,0.0-2.0-0.11-0.102-3.102,0,0,1,90,false,stim,false,2,636.2650000000722,0,0,1,86523,WMM2,432809,false,false,429,image-keyboard-response,20
true,3,0,1,0,true,q,false,true,0.0-2.0-0.11-0.103-3.103,0,0,1,81,false,stim,false,1,653.5949999997392,0,0,0,86523,WMM2,434985,false,false,432,image-keyboard-response,21
true,3,2,1,1,false,z,true,false,0.0-2.0-0.11-0.104-3.104,0,0,1,68,false,stim,false,1,524.5500000000466,0,1,2,86523,WMM2,437039,false,false,435,image-keyboard-response,22
true,3,1,1,1,true,z,false,true,0.0-2.0-0.11-0.105-3.105,0,0,1,90,false,stim,false,1,681.8300000004238,0,1,2,86523,WMM2,439246,false,false,438,image-keyboard-response,23
true,3,2,1,0,false,q,false,false,0.0-2.0-0.11-0.106-3.106,0,0,1,68,false,stim,true,2,598.8250000000116,0,0,1,86523,WMM2,441382,false,false,441,image-keyboard-response,24
true,3,0,1,0,true,q,false,true,0.0-2.0-0.11-0.107-3.107,0,0,1,81,false,stim,false,2,338.5850000003702,0,0,1,86523,WMM2,443251,false,false,444,image-keyboard-response,25
true,3,0,1,0,true,q,false,true,0.0-2.0-0.12-0.108-3.108,0,0,1,81,false,stim,false,2,464.9150000004447,0,0,1,86523,WMM2,445248,false,false,447,image-keyboard-response,26
true,3,0,1,0,true,q,false,true,0.0-2.0-0.12-0.109-3.109,0,0,1,81,false,stim,false,2,546.2400000005728,0,0,1,86523,WMM2,447329,false,false,450,image-keyboard-response,27
true,3,1,1,1,true,z,false,true,0.0-2.0-0.12-0.110-3.110,0,0,1,90,false,stim,false,1,530.1399999998393,0,1,2,86523,WMM2,449395,false,false,453,image-keyboard-response,28
true,3,1,1,0,false,q,true,false,0.0-2.0-0.12-0.111-3.111,0,0,1,90,false,stim,false,2,1026.6599999995087,0,0,1,86523,WMM2,451944,false,false,456,image-keyboard-response,29
true,3,0,1,0,true,q,false,true,0.0-2.0-0.12-0.112-3.112,0,0,1,81,false,stim,false,1,721.394999999553,0,0,0,86523,WMM2,454187,false,false,459,image-keyboard-response,30
true,3,2,1,1,false,z,true,false,0.0-2.0-0.12-0.113-3.113,0,0,1,68,false,stim,false,1,969.309999999532,0,1,2,86523,WMM2,456686,false,false,462,image-keyboard-response,31
true,3,1,1,1,true,z,false,true,0.0-2.0-0.12-0.114-3.114,0,0,1,90,false,stim,false,1,325.8800000003539,0,1,2,86523,WMM2,458542,false,false,465,image-keyboard-response,32
true,3,0,1,0,true,q,false,true,0.0-2.0-0.12-0.115-3.115,0,0,1,81,false,stim,false,1,927.8349999994971,0,0,0,86523,WMM2,460994,false,false,468,image-keyboard-response,33
true,3,0,1,0,true,q,false,true,0.0-2.0-0.12-0.116-3.116,0,0,1,81,false,stim,false,1,425.79999999998836,0,0,0,86523,WMM2,462942,false,false,471,image-keyboard-response,34
true,3,1,1,1,true,z,false,true,0.0-2.0-0.13-0.117-3.117,0,0,1,90,false,stim,false,1,786.3349999997881,0,1,2,86523,WMM2,465253,false,false,474,image-keyboard-response,35
true,3,1,1,1,true,z,false,true,0.0-2.0-0.13-0.118-3.118,0,0,1,90,false,stim,false,1,562.1750000000466,0,1,2,86523,WMM2,467346,false,false,477,image-keyboard-response,36
true,3,0,1,0,true,q,false,true,0.0-2.0-0.13-0.119-3.119,0,0,1,81,false,stim,false,1,554.7949999999837,0,0,0,86523,WMM2,469436,false,false,480,image-keyboard-response,37
true,3,1,1,1,true,z,false,true,0.0-2.0-0.13-0.120-3.120,0,0,1,90,false,stim,false,1,678.3050000004005,0,1,2,86523,WMM2,471643,false,false,483,image-keyboard-response,38
true,4,0,1,1,false,z,false,false,0.0-2.0-0.13-0.121-3.121,0,0,1,81,true,stim,true,0,1326.5549999996438,0,0,1,86523,WMM2,474492,false,false,486,image-keyboard-response,1
true,4,0,1,2,false,d,false,false,0.0-2.0-0.13-0.122-3.122,0,0,1,81,false,stim,true,0,597.3399999993853,0,0,0,86523,WMM2,476612,false,false,489,image-keyboard-response,2
true,4,1,1,1,true,z,false,true,0.0-2.0-0.13-0.123-3.123,0,0,1,90,false,stim,false,0,865.4699999997392,0,0,1,86523,WMM2,479016,false,false,492,image-keyboard-response,3
true,4,1,1,1,true,z,false,true,0.0-2.0-0.13-0.124-3.124,0,0,1,90,false,stim,false,0,520.4649999996182,0,0,1,86523,WMM2,481070,false,false,495,image-keyboard-response,4
true,4,1,1,2,false,d,true,false,0.0-2.0-0.13-0.125-3.125,0,0,1,90,false,stim,false,0,557.284999999858,0,0,0,86523,WMM2,483156,false,false,498,image-keyboard-response,5
true,4,1,1,1,true,z,false,true,0.0-2.0-0.14-0.126-3.126,0,0,1,90,false,stim,false,0,667.2349999999278,0,0,1,86523,WMM2,485344,false,false,501,image-keyboard-response,6
true,4,1,1,1,true,z,false,true,0.0-2.0-0.14-0.127-3.127,0,0,1,90,false,stim,false,1,1130.345000000496,0,1,2,86523,WMM2,487998,false,false,504,image-keyboard-response,7
true,4,1,1,1,true,z,false,true,0.0-2.0-0.14-0.128-3.128,0,0,1,90,false,stim,false,1,511.9249999997555,0,1,2,86523,WMM2,490043,false,false,507,image-keyboard-response,8
true,4,1,1,1,true,z,false,true,0.0-2.0-0.14-0.129-3.129,0,0,1,90,false,stim,false,0,546.4199999996345,0,0,1,86523,WMM2,492114,false,false,510,image-keyboard-response,9
true,4,2,1,2,true,d,false,true,0.0-2.0-0.14-0.130-3.130,0,0,1,68,false,stim,false,0,447.14500000013504,0,0,0,86523,WMM2,494097,false,false,513,image-keyboard-response,10
true,4,1,1,1,true,z,false,false,0.0-2.0-0.14-0.131-3.131,0,0,1,90,false,stim,false,1,603.9600000004284,0,1,2,86523,WMM2,496237,false,true,516,image-keyboard-response,11
true,4,1,1,1,true,z,false,true,0.0-2.0-0.14-0.132-3.132,0,0,1,90,false,stim,false,0,1243.8099999999395,0,0,1,86523,WMM2,499012,false,false,519,image-keyboard-response,12
true,4,2,1,2,true,d,false,false,0.0-2.0-0.14-0.133-3.133,0,0,1,68,false,stim,false,0,768.7900000000373,0,0,0,86523,WMM2,501303,false,true,522,image-keyboard-response,13
true,4,1,1,2,false,d,true,false,0.0-2.0-0.14-0.134-3.134,0,0,1,90,false,stim,false,0,1138.7150000000838,0,0,0,86523,WMM2,503973,false,false,525,image-keyboard-response,14
true,4,1,1,1,true,z,false,true,0.0-2.0-0.15-0.135-3.135,0,0,1,90,false,stim,false,0,1054.619999999879,0,0,1,86523,WMM2,506555,false,false,528,image-keyboard-response,15
true,4,0,1,2,false,d,false,false,0.0-2.0-0.15-0.136-3.136,0,0,1,81,false,stim,true,0,912.4549999997253,0,0,0,86523,WMM2,508997,false,false,531,image-keyboard-response,16
true,4,1,1,1,true,z,false,true,0.0-2.0-0.15-0.137-3.137,0,0,1,90,false,stim,false,0,689.9800000000978,0,0,1,86523,WMM2,511223,false,false,534,image-keyboard-response,17
true,4,1,1,1,true,z,false,true,0.0-2.0-0.15-0.138-3.138,0,0,1,90,false,stim,false,0,607.8850000003586,0,0,1,86523,WMM2,513360,false,false,537,image-keyboard-response,18
true,4,1,1,1,true,z,false,true,0.0-2.0-0.15-0.139-3.139,0,0,1,90,false,stim,false,1,1687.8400000004913,0,1,2,86523,WMM2,516573,false,false,540,image-keyboard-response,19
true,4,2,1,2,true,d,false,true,0.0-2.0-0.15-0.140-3.140,0,0,1,68,false,stim,false,0,1113.8149999997113,0,0,0,86523,WMM2,519216,false,false,543,image-keyboard-response,20
true,4,2,1,2,true,d,false,true,0.0-2.0-0.15-0.141-3.141,0,0,1,68,false,stim,false,0,572.3900000002468,0,0,0,86523,WMM2,521323,false,false,546,image-keyboard-response,21
true,4,1,1,1,true,z,false,true,0.0-2.0-0.15-0.142-3.142,0,0,1,90,false,stim,false,1,571.3800000003539,0,1,2,86523,WMM2,523423,false,false,549,image-keyboard-response,22
true,4,1,1,1,true,z,false,true,0.0-2.0-0.15-0.143-3.143,0,0,1,90,false,stim,false,1,603.0299999993294,0,1,2,86523,WMM2,525554,false,false,552,image-keyboard-response,23
true,4,1,1,1,true,z,false,true,0.0-2.0-0.16-0.144-3.144,0,0,1,90,false,stim,false,1,455.5950000004377,0,1,2,86523,WMM2,527540,false,false,555,image-keyboard-response,24
true,4,1,1,1,true,z,false,true,0.0-2.0-0.16-0.145-3.145,0,0,1,90,false,stim,false,0,1272.814999999362,0,0,1,86523,WMM2,530341,false,false,558,image-keyboard-response,25
true,4,1,1,1,true,z,false,true,0.0-2.0-0.16-0.146-3.146,0,0,1,90,false,stim,false,1,679.6300000005867,0,1,2,86523,WMM2,532548,false,false,561,image-keyboard-response,26
true,4,1,1,1,true,z,false,true,0.0-2.0-0.16-0.147-3.147,0,0,1,90,false,stim,false,0,591.7600000002421,0,0,1,86523,WMM2,534676,false,false,564,image-keyboard-response,27
true,4,2,1,2,true,d,false,false,0.0-2.0-0.16-0.148-3.148,0,0,1,68,false,stim,false,0,433.62000000069384,0,1,0,86523,WMM2,536634,false,true,567,image-keyboard-response,28
true,4,0,1,2,false,d,false,false,0.0-2.0-0.16-0.149-3.149,0,0,1,81,false,stim,true,0,745.1149999996414,0,1,0,86523,WMM2,538912,false,false,570,image-keyboard-response,29
true,4,1,1,1,true,z,false,false,0.0-2.0-0.16-0.150-3.150,0,0,1,90,false,stim,false,0,826.5600000004051,0,0,1,86523,WMM2,541263,false,true,573,image-keyboard-response,30
true,4,1,1,2,false,d,true,false,0.0-2.0-0.16-0.151-3.151,0,0,1,90,false,stim,false,0,1152.129999999539,0,1,0,86523,WMM2,543951,false,false,576,image-keyboard-response,31
true,5,1,2,1,true,z,false,true,0.0-2.0-0.16-0.152-3.152,1,0,1,90,true,stim,false,1,765.6099999995204,0,1,2,86523,WMM2,546235,false,false,579,image-keyboard-response,1
true,5,1,2,1,true,z,false,true,0.0-2.0-0.17-0.153-3.153,1,0,1,90,false,stim,false,1,796.875,0,1,2,86523,WMM2,548564,false,false,582,image-keyboard-response,2
true,5,0,2,2,false,d,true,false,0.0-2.0-0.17-0.154-3.154,1,0,1,81,false,stim,false,1,1422.8700000003446,0,0,1,86523,WMM2,551524,false,false,585,image-keyboard-response,3
true,5,1,2,2,false,d,true,false,0.0-2.0-0.17-0.155-3.155,1,0,1,90,false,stim,false,2,1771.8949999999022,0,1,0,86523,WMM2,554824,false,false,588,image-keyboard-response,4
true,5,1,2,2,false,d,false,false,0.0-2.0-0.17-0.156-3.156,1,0,1,90,false,stim,true,1,627.4899999997579,0,0,1,86523,WMM2,556980,false,false,591,image-keyboard-response,5
true,5,2,2,2,true,d,false,true,0.0-2.0-0.17-0.157-3.157,1,0,1,68,false,stim,false,1,776.2850000008475,0,0,1,86523,WMM2,559294,false,false,594,image-keyboard-response,6
true,5,2,2,2,true,d,false,true,0.0-2.0-0.17-0.158-3.158,1,0,1,68,false,stim,false,2,1027.9900000004563,0,1,0,86523,WMM2,561846,false,false,597,image-keyboard-response,7
true,5,2,2,2,true,d,false,true,0.0-2.0-0.17-0.159-3.159,1,0,1,68,false,stim,false,2,628.7200000005541,0,1,0,86523,WMM2,563998,false,false,600,image-keyboard-response,8
true,5,0,2,1,false,z,true,false,0.0-2.0-0.17-0.160-3.160,1,0,1,81,false,stim,false,1,1499.1550000004936,0,1,2,86523,WMM2,567033,false,false,603,image-keyboard-response,9
true,5,1,2,1,true,z,false,true,0.0-2.0-0.17-0.161-3.161,1,0,1,90,false,stim,false,1,670.1899999998277,0,1,2,86523,WMM2,569239,false,false,606,image-keyboard-response,10
true,5,2,2,2,true,d,false,true,0.0-2.0-0.18-0.162-3.162,1,0,1,68,false,stim,false,1,777.4450000006473,0,0,1,86523,WMM2,571530,false,false,609,image-keyboard-response,11
true,5,2,2,2,true,d,false,true,0.0-2.0-0.18-0.163-3.163,1,0,1,68,false,stim,false,2,428.9499999996042,0,1,0,86523,WMM2,573498,false,false,612,image-keyboard-response,12
true,5,2,2,2,true,d,false,true,0.0-2.0-0.18-0.164-3.164,1,0,1,68,false,stim,false,1,690.1900000002934,0,0,1,86523,WMM2,575726,false,false,615,image-keyboard-response,13
true,5,2,2,2,true,d,false,true,0.0-2.0-0.18-0.165-3.165,1,0,1,68,false,stim,false,2,864.9949999998789,0,1,0,86523,WMM2,578117,false,false,618,image-keyboard-response,14
true,5,1,2,1,true,z,false,true,0.0-2.0-0.18-0.166-3.166,1,0,1,90,false,stim,false,1,1973.1250000004657,0,1,2,86523,WMM2,581625,false,false,621,image-keyboard-response,15
true,5,2,2,2,true,d,false,true,0.0-2.0-0.18-0.167-3.167,1,0,1,68,false,stim,false,1,1005.1200000006938,0,0,1,86523,WMM2,584158,false,false,624,image-keyboard-response,16
true,5,2,2,2,true,d,false,true,0.0-2.0-0.18-0.168-3.168,1,0,1,68,false,stim,false,2,413.2049999998417,0,1,0,86523,WMM2,586101,false,false,627,image-keyboard-response,17
true,5,2,2,1,false,z,true,false,0.0-2.0-0.18-0.169-3.169,1,0,1,68,false,stim,false,1,1275.7849999997998,0,1,2,86523,WMM2,588911,false,false,630,image-keyboard-response,18
true,5,1,2,1,true,z,false,true,0.0-2.0-0.18-0.170-3.170,1,0,1,90,false,stim,false,1,622.1349999996601,0,1,2,86523,WMM2,591058,false,false,633,image-keyboard-response,19
true,5,2,2,2,true,d,false,true,0.0-2.0-0.19-0.171-3.171,1,0,1,68,false,stim,false,2,496.425000000163,0,1,0,86523,WMM2,593084,false,false,636,image-keyboard-response,20
true,5,1,2,1,true,z,false,true,0.0-2.0-0.19-0.172-3.172,1,0,1,90,false,stim,false,1,821.9950000002282,0,1,2,86523,WMM2,595443,false,false,639,image-keyboard-response,21
true,5,2,2,2,true,d,false,true,0.0-2.0-0.19-0.173-3.173,1,0,1,68,false,stim,false,2,747.7149999995017,0,0,0,86523,WMM2,597720,false,false,642,image-keyboard-response,22
true,5,2,2,2,true,d,false,false,0.0-2.0-0.19-0.174-3.174,1,0,1,68,false,stim,false,1,1910.25,0,1,1,86523,WMM2,601166,false,true,645,image-keyboard-response,23
true,5,1,2,2,false,d,false,true,0.0-2.0-0.19-0.175-3.175,1,0,1,90,false,stim,true,1,921.1750000003958,0,1,1,86523,WMM2,603609,false,true,648,image-keyboard-response,24
true,5,1,2,1,true,z,false,false,0.0-2.0-0.19-0.176-3.176,1,0,1,90,false,stim,false,1,697.0500000006286,0,1,2,86523,WMM2,605836,false,true,651,image-keyboard-response,25
true,5,1,2,2,false,d,false,false,0.0-2.0-0.19-0.177-3.177,1,0,1,90,false,stim,true,1,573.6150000002235,0,1,1,86523,WMM2,607946,false,false,654,image-keyboard-response,26
true,5,2,2,2,true,d,false,true,0.0-2.0-0.19-0.178-3.178,1,0,1,68,false,stim,false,2,1813.8999999992084,0,0,0,86523,WMM2,611285,false,false,657,image-keyboard-response,27
true,5,1,2,1,true,z,false,true,0.0-2.0-0.19-0.179-3.179,1,0,1,90,false,stim,false,1,1289.705000000191,0,1,2,86523,WMM2,614110,false,false,660,image-keyboard-response,28
true,5,2,2,2,true,d,false,true,0.0-2.0-0.20-0.180-3.180,1,0,1,68,false,stim,false,2,729.2950000001583,0,0,0,86523,WMM2,616369,false,false,663,image-keyboard-response,29
true,5,0,2,2,false,d,true,false,0.0-2.0-0.20-0.181-3.181,1,0,1,81,false,stim,false,1,370.83500000066124,0,1,1,86523,WMM2,618275,false,false,666,image-keyboard-response,30
true,5,1,2,2,false,d,false,false,0.0-2.0-0.20-0.182-3.182,1,0,1,90,false,stim,true,1,698.0549999998184,0,1,1,86523,WMM2,620503,false,false,669,image-keyboard-response,31
true,6,2,4,2,true,d,false,false,0.0-2.0-0.20-0.183-3.183,0,1,1,68,true,stim,false,2,397.49500000011176,0,1,1,86523,WMM2,622435,false,true,672,image-keyboard-response,1
true,6,2,4,1,false,z,true,false,0.0-2.0-0.20-0.184-3.184,0,1,1,68,false,stim,false,1,2364.8700000003446,0,1,2,86523,WMM2,626337,false,false,675,image-keyboard-response,2
true,6,1,4,2,false,d,true,true,0.0-2.0-0.20-0.185-3.185,0,1,1,90,false,stim,false,2,2215.1250000006985,0,0,0,86523,WMM2,630085,false,true,678,image-keyboard-response,3
true,6,1,4,1,true,z,false,false,0.0-2.0-0.20-0.186-3.186,0,1,1,90,false,stim,false,1,1545.820000000298,0,1,2,86523,WMM2,633168,false,true,681,image-keyboard-response,4
true,6,0,4,1,false,z,true,false,0.0-2.0-0.20-0.187-3.187,0,1,1,81,false,stim,false,1,665.6649999995716,0,1,2,86523,WMM2,635354,false,false,684,image-keyboard-response,5
true,6,1,4,2,false,d,true,false,0.0-2.0-0.20-0.188-3.188,0,1,1,90,false,stim,false,2,864.2600000003586,0,0,0,86523,WMM2,637741,false,false,687,image-keyboard-response,6
true,6,2,4,2,true,d,false,true,0.0-2.0-0.21-0.189-3.189,0,1,1,68,false,stim,false,2,636.835000000312,0,1,1,86523,WMM2,639910,false,false,690,image-keyboard-response,7
true,6,1,4,1,true,z,false,true,0.0-2.0-0.21-0.190-3.190,0,1,1,90,false,stim,false,1,651.3850000000093,0,1,2,86523,WMM2,642092,false,false,693,image-keyboard-response,8
true,6,0,4,2,false,d,true,false,0.0-2.0-0.21-0.191-3.191,0,1,1,81,false,stim,false,2,630.9650000003166,0,0,0,86523,WMM2,644254,false,false,696,image-keyboard-response,9
true,6,2,4,2,true,d,false,true,0.0-2.0-0.21-0.192-3.192,0,1,1,68,false,stim,false,2,360.0600000000559,0,0,0,86523,WMM2,646133,false,false,699,image-keyboard-response,10
true,6,2,4,2,true,d,false,true,0.0-2.0-0.21-0.193-3.193,0,1,1,68,false,stim,false,2,430.4000000002561,0,0,0,86523,WMM2,648103,false,false,702,image-keyboard-response,11
true,6,1,4,1,true,z,false,true,0.0-2.0-0.21-0.194-3.194,0,1,1,90,false,stim,false,1,999.5300000000279,0,1,2,86523,WMM2,650638,false,false,705,image-keyboard-response,12
true,6,2,4,2,true,d,false,true,0.0-2.0-0.21-0.195-3.195,0,1,1,68,false,stim,false,2,370.7700000003679,0,1,1,86523,WMM2,652543,false,false,708,image-keyboard-response,13
true,6,2,4,2,true,d,false,true,0.0-2.0-0.21-0.196-3.196,0,1,1,68,false,stim,false,2,329.67500000004657,0,1,1,86523,WMM2,654405,false,false,711,image-keyboard-response,14
true,6,1,4,1,true,z,false,false,0.0-2.0-0.21-0.197-3.197,0,1,1,90,false,stim,false,1,845.4550000006566,0,1,2,86523,WMM2,656783,false,true,714,image-keyboard-response,15
true,6,1,4,2,false,d,true,true,0.0-2.0-0.22-0.198-3.198,0,1,1,90,false,stim,false,2,2369.564999999944,0,1,1,86523,WMM2,660675,false,true,717,image-keyboard-response,16
true,6,1,4,2,false,d,true,true,0.0-2.0-0.22-0.199-3.199,0,1,1,90,false,stim,false,2,769.8249999993714,0,1,1,86523,WMM2,662976,false,true,720,image-keyboard-response,17
true,6,1,4,2,false,d,true,false,0.0-2.0-0.22-0.200-3.200,0,1,1,90,false,stim,false,2,709.7750000002561,0,1,1,86523,WMM2,665204,false,false,723,image-keyboard-response,18
true,6,0,4,1,false,z,true,false,0.0-2.0-0.22-0.201-3.201,0,1,1,81,false,stim,false,1,613.1600000008475,0,1,2,86523,WMM2,667329,false,false,726,image-keyboard-response,19
true,6,2,4,1,false,z,true,false,0.0-2.0-0.22-0.202-3.202,0,1,1,68,false,stim,false,1,438.3399999997346,0,1,2,86523,WMM2,669293,false,false,729,image-keyboard-response,20
true,6,1,4,2,false,d,true,false,0.0-2.0-0.22-0.203-3.203,0,1,1,90,false,stim,false,2,1199.0900000000838,0,0,0,86523,WMM2,672023,false,false,732,image-keyboard-response,21
true,6,2,4,1,false,z,true,false,0.0-2.0-0.22-0.204-3.204,0,1,1,68,false,stim,false,1,705.3799999994226,0,1,2,86523,WMM2,674247,false,false,735,image-keyboard-response,22
true,6,0,4,2,false,d,true,false,0.0-2.0-0.22-0.205-3.205,0,1,1,81,false,stim,false,2,1219.2150000000838,0,0,0,86523,WMM2,676995,false,false,738,image-keyboard-response,23
true,6,1,4,2,false,d,true,false,0.0-2.0-0.22-0.206-3.206,0,1,1,90,false,stim,false,2,697.7500000002328,0,0,0,86523,WMM2,679223,false,false,741,image-keyboard-response,24
true,6,1,4,2,false,d,true,false,0.0-2.0-0.23-0.207-3.207,0,1,1,90,false,stim,false,2,1079.4850000002189,0,1,1,86523,WMM2,681821,false,false,744,image-keyboard-response,25
true,6,2,4,2,true,d,false,true,0.0-2.0-0.23-0.208-3.208,0,1,1,68,false,stim,false,2,1210.5750000000698,0,0,0,86523,WMM2,684566,false,false,747,image-keyboard-response,26
true,6,2,4,1,false,z,true,false,0.0-2.0-0.23-0.209-3.209,0,1,1,68,false,stim,false,1,993.7550000004703,0,1,2,86523,WMM2,687086,false,false,750,image-keyboard-response,27
true,6,2,4,2,true,d,false,true,0.0-2.0-0.23-0.210-3.210,0,1,1,68,false,stim,false,2,611.0900000003166,0,0,0,86523,WMM2,689236,false,false,753,image-keyboard-response,28
true,6,0,4,1,false,z,true,false,0.0-2.0-0.23-0.211-3.211,0,1,1,81,false,stim,false,1,544.4649999999674,0,1,2,86523,WMM2,691302,false,false,756,image-keyboard-response,29
true,6,1,4,2,false,d,true,false,0.0-2.0-0.23-0.212-3.212,0,1,1,90,false,stim,false,2,756.2449999995297,0,1,1,86523,WMM2,693598,false,false,759,image-keyboard-response,30
true,6,2,4,2,true,d,false,true,0.0-2.0-0.23-0.213-3.213,0,1,1,68,false,stim,false,2,590.7500000002328,0,0,0,86523,WMM2,695715,false,false,762,image-keyboard-response,31
true,6,2,4,2,true,d,false,false,0.0-2.0-0.23-0.214-3.214,0,1,1,68,false,stim,false,2,573.5750000003027,0,1,1,86523,WMM2,697813,false,true,765,image-keyboard-response,32
true,6,1,4,1,true,z,false,true,0.0-2.0-0.23-0.215-3.215,0,1,1,90,false,stim,false,1,932.4349999997066,0,1,2,86523,WMM2,700273,false,false,768,image-keyboard-response,33
true,6,1,4,2,false,d,true,false,0.0-2.0-0.24-0.216-3.216,0,1,1,90,false,stim,false,2,656.4000000008382,0,1,1,86523,WMM2,702465,false,false,771,image-keyboard-response,34
true,6,2,4,2,true,d,false,true,0.0-2.0-0.24-0.217-3.217,0,1,1,68,false,stim,false,2,593.0849999994971,0,1,1,86523,WMM2,704584,false,false,774,image-keyboard-response,35
true,6,2,4,2,true,d,false,true,0.0-2.0-0.24-0.218-3.218,0,1,1,68,false,stim,false,2,460.6500000000233,0,1,1,86523,WMM2,706583,false,false,777,image-keyboard-response,36
true,6,2,4,2,true,d,false,false,0.0-2.0-0.24-0.219-3.219,0,1,1,68,false,stim,false,2,757.8250000005355,0,0,0,86523,WMM2,708866,false,true,780,image-keyboard-response,37
true,6,0,4,2,false,d,true,true,0.0-2.0-0.24-0.220-3.220,0,1,1,81,false,stim,false,2,591.4949999996461,0,0,0,86523,WMM2,710982,false,true,783,image-keyboard-response,38
true,6,0,4,2,false,d,true,false,0.0-2.0-0.24-0.221-3.221,0,1,1,81,false,stim,false,2,488.62999999988824,0,0,0,86523,WMM2,712995,false,false,786,image-keyboard-response,39
true,6,1,4,1,true,z,false,true,0.0-2.0-0.24-0.222-3.222,0,1,1,90,false,stim,false,1,904.6699999999255,0,1,2,86523,WMM2,715428,false,false,789,image-keyboard-response,40
true,6,1,4,1,true,z,false,false,0.0-2.0-0.24-0.223-3.223,0,1,1,90,false,stim,false,1,813.7550000001211,0,1,2,86523,WMM2,717773,false,true,792,image-keyboard-response,41
true,6,1,4,1,true,z,false,true,0.0-2.0-0.24-0.224-3.224,0,1,1,90,false,stim,false,1,427.6900000004098,0,1,2,86523,WMM2,719736,false,false,795,image-keyboard-response,42
true,6,0,4,2,false,d,true,false,0.0-2.0-0.25-0.225-3.225,0,1,1,81,false,stim,false,2,776.1500000006054,0,0,0,86523,WMM2,722051,false,false,798,image-keyboard-response,43
true,6,0,4,2,false,d,true,false,0.0-2.0-0.25-0.226-3.226,0,1,1,81,false,stim,false,2,2190.560000000056,0,1,1,86523,WMM2,725789,false,false,801,image-keyboard-response,44
true,6,0,4,2,false,d,true,false,0.0-2.0-0.25-0.227-3.227,0,1,1,81,false,stim,false,2,1576.1849999999395,0,0,0,86523,WMM2,728886,false,false,804,image-keyboard-response,45
true,6,1,4,2,false,d,true,true,0.0-2.0-0.25-0.228-3.228,0,1,1,90,false,stim,false,2,432.9799999996321,0,1,1,86523,WMM2,730858,false,true,807,image-keyboard-response,46
true,6,2,4,1,false,z,true,false,0.0-2.0-0.25-0.229-3.229,0,1,1,68,false,stim,false,1,1097.9250000000466,0,1,2,86523,WMM2,733488,false,false,810,image-keyboard-response,47
true,6,1,4,2,false,d,true,false,0.0-2.0-0.25-0.230-3.230,0,1,1,90,false,stim,false,2,1409.824999999837,0,0,0,86523,WMM2,736435,false,false,813,image-keyboard-response,48
true,6,2,4,2,true,d,false,true,0.0-2.0-0.25-0.231-3.231,0,1,1,68,false,stim,false,2,672.6650000000373,0,1,1,86523,WMM2,738632,false,false,816,image-keyboard-response,49
true,6,1,4,1,true,z,false,true,0.0-2.0-0.25-0.232-3.232,0,1,1,90,false,stim,false,1,749.4550000000745,0,1,2,86523,WMM2,740909,false,false,819,image-keyboard-response,50
true,6,1,4,1,true,z,false,true,0.0-2.0-0.25-0.233-3.233,0,1,1,90,false,stim,false,1,649.550000000163,0,1,2,86523,WMM2,743092,false,false,822,image-keyboard-response,51
true,6,1,4,1,true,z,false,true,0.0-2.0-0.26-0.234-3.234,0,1,1,90,false,stim,false,1,721.6800000005169,0,1,2,86523,WMM2,745346,false,false,825,image-keyboard-response,52
true,6,2,4,2,true,d,false,true,0.0-2.0-0.26-0.235-3.235,0,1,1,68,false,stim,false,2,926.5449999993434,0,0,0,86523,WMM2,747803,false,false,828,image-keyboard-response,53
true,6,2,4,2,true,d,false,true,0.0-2.0-0.26-0.236-3.236,0,1,1,68,false,stim,false,2,769.414999999688,0,1,1,86523,WMM2,750095,false,false,831,image-keyboard-response,54
true,6,1,4,1,true,z,false,true,0.0-2.0-0.26-0.237-3.237,0,1,1,90,false,stim,false,1,378.7500000008149,0,1,2,86523,WMM2,752005,false,false,834,image-keyboard-response,55
true,6,1,4,2,false,d,true,false,0.0-2.0-0.26-0.238-3.238,0,1,1,90,false,stim,false,2,366.5350000000326,0,1,1,86523,WMM2,753906,false,false,837,image-keyboard-response,56
true,6,2,4,2,true,d,false,false,0.0-2.0-0.26-0.239-3.239,0,1,1,68,false,stim,false,2,714.2549999998882,0,0,0,86523,WMM2,756156,false,true,840,image-keyboard-response,57
true,6,0,4,2,false,d,true,false,0.0-2.0-0.26-0.240-3.240,0,1,1,81,false,stim,false,2,917.7800000007264,0,1,1,86523,WMM2,758610,false,false,843,image-keyboard-response,58
true,6,1,4,1,true,z,false,true,0.0-2.0-0.26-0.241-3.241,0,1,1,90,false,stim,false,1,786.1499999999069,0,1,2,86523,WMM2,760929,false,false,846,image-keyboard-response,59
true,6,2,4,2,true,d,false,true,0.0-2.0-0.26-0.242-3.242,0,1,1,68,false,stim,false,2,1206.464999999269,0,0,0,86523,WMM2,763667,false,false,849,image-keyboard-response,60
true,7,1,3,1,true,z,false,false,0.0-2.0-0.27-0.243-3.243,0,1,1,90,true,stim,false,1,748.3400000000838,0,1,2,86523,WMM2,765942,false,true,852,image-keyboard-response,1
true,7,1,3,1,true,z,false,false,0.0-2.0-0.27-0.244-3.244,0,1,1,90,false,stim,false,1,743.2699999999022,0,1,2,86523,WMM2,768208,false,true,855,image-keyboard-response,2
true,7,2,3,1,false,z,true,false,0.0-2.0-0.27-0.245-3.245,0,1,1,68,false,stim,false,1,428.7950000007404,0,1,2,86523,WMM2,770171,false,false,858,image-keyboard-response,3
true,7,1,3,2,false,d,true,true,0.0-2.0-0.27-0.246-3.246,0,1,1,90,false,stim,false,2,653.625,0,1,1,86523,WMM2,772345,false,true,861,image-keyboard-response,4
true,7,1,3,2,false,d,true,false,0.0-2.0-0.27-0.247-3.247,0,1,1,90,false,stim,false,2,1024.5999999997439,0,1,1,86523,WMM2,774901,false,false,864,image-keyboard-response,5
true,7,2,3,0,false,q,false,false,0.0-2.0-0.27-0.248-3.248,0,1,1,68,false,stim,true,2,1596.6150000004563,0,0,0,86523,WMM2,778007,false,false,867,image-keyboard-response,6
true,7,0,3,0,true,q,false,true,0.0-2.0-0.27-0.249-3.249,0,1,1,81,false,stim,false,2,548.6099999998696,0,0,0,86523,WMM2,780093,false,false,870,image-keyboard-response,7
true,7,0,3,0,true,q,false,true,0.0-2.0-0.27-0.250-3.250,0,1,1,81,false,stim,false,2,611.879999999539,0,0,0,86523,WMM2,782238,false,false,873,image-keyboard-response,8
true,7,1,3,2,false,d,true,false,0.0-2.0-0.27-0.251-3.251,0,1,1,90,false,stim,false,2,658.515000000014,0,1,1,86523,WMM2,784415,false,false,876,image-keyboard-response,9
true,7,2,3,2,true,d,false,true,0.0-2.0-0.28-0.252-3.252,0,1,1,68,false,stim,false,2,370.59499999939,0,1,1,86523,WMM2,786314,false,false,879,image-keyboard-response,10
true,7,2,3,2,true,d,false,true,0.0-2.0-0.28-0.253-3.253,0,1,1,68,false,stim,false,2,385.72500000009313,0,1,1,86523,WMM2,788218,false,false,882,image-keyboard-response,11
true,7,0,3,0,true,q,false,true,0.0-2.0-0.28-0.254-3.254,0,1,1,81,false,stim,false,2,352.74500000011176,0,0,0,86523,WMM2,790097,false,false,885,image-keyboard-response,12
true,7,0,3,0,true,q,false,true,0.0-2.0-0.28-0.255-3.255,0,1,1,81,false,stim,false,2,498.41500000003725,0,0,0,86523,WMM2,792125,false,false,888,image-keyboard-response,13
true,7,0,3,0,true,q,false,true,0.0-2.0-0.28-0.256-3.256,0,1,1,81,false,stim,false,2,314.1000000005588,0,0,0,86523,WMM2,793973,false,false,891,image-keyboard-response,14
true,7,1,3,2,false,d,true,false,0.0-2.0-0.28-0.257-3.257,0,1,1,90,false,stim,false,2,509.1500000007218,0,1,1,86523,WMM2,796019,false,false,894,image-keyboard-response,15
true,7,2,3,1,false,z,true,false,0.0-2.0-0.28-0.258-3.258,0,1,1,68,false,stim,false,1,736.3599999998696,0,1,2,86523,WMM2,798280,false,false,897,image-keyboard-response,16
true,7,0,3,1,false,z,true,false,0.0-2.0-0.28-0.259-3.259,0,1,1,81,false,stim,false,1,1048.669999999227,0,1,2,86523,WMM2,800859,false,false,900,image-keyboard-response,17
true,7,1,3,1,true,z,false,true,0.0-2.0-0.28-0.260-3.260,0,1,1,90,false,stim,false,1,331.69000000006054,0,1,2,86523,WMM2,802722,false,false,903,image-keyboard-response,18
true,7,2,3,2,true,d,false,true,0.0-2.0-0.29-0.261-3.261,0,1,1,68,false,stim,false,2,598.5050000000047,0,1,1,86523,WMM2,804856,false,false,906,image-keyboard-response,19
true,7,0,3,0,true,q,false,true,0.0-2.0-0.29-0.262-3.262,0,1,1,81,false,stim,false,2,567.554999999702,0,0,0,86523,WMM2,806961,false,false,909,image-keyboard-response,20
true,7,2,3,2,true,d,false,true,0.0-2.0-0.29-0.263-3.263,0,1,1,68,false,stim,false,2,940.4300000005169,0,1,1,86523,WMM2,809435,false,false,912,image-keyboard-response,21
true,7,1,3,1,true,z,false,true,0.0-2.0-0.29-0.264-3.264,0,1,1,90,false,stim,false,1,485.5649999999441,0,1,2,86523,WMM2,811447,false,false,915,image-keyboard-response,22
true,7,0,3,0,true,q,false,true,0.0-2.0-0.29-0.265-3.265,0,1,1,81,false,stim,false,2,740.4799999993993,0,1,0,86523,WMM2,813718,false,false,918,image-keyboard-response,23
true,7,2,3,2,true,d,false,true,0.0-2.0-0.29-0.266-3.266,0,1,1,68,false,stim,false,2,828.2900000003865,0,0,1,86523,WMM2,816073,false,false,921,image-keyboard-response,24
true,7,0,3,0,true,q,false,true,0.0-2.0-0.29-0.267-3.267,0,1,1,81,false,stim,false,2,520.1399999995483,0,1,0,86523,WMM2,818130,false,false,924,image-keyboard-response,25
true,7,1,3,1,true,z,false,false,0.0-2.0-0.29-0.268-3.268,0,1,1,90,false,stim,false,1,670.0099999997765,0,1,2,86523,WMM2,820331,false,true,927,image-keyboard-response,26
true,7,2,3,1,false,z,true,false,0.0-2.0-0.29-0.269-3.269,0,1,1,68,false,stim,false,1,366.3200000001816,0,1,2,86523,WMM2,822227,false,false,930,image-keyboard-response,27
true,7,0,3,0,true,q,false,true,0.0-2.0-0.30-0.270-3.270,0,1,1,81,false,stim,false,2,837.8349999993807,0,1,0,86523,WMM2,824599,false,false,933,image-keyboard-response,28
true,7,0,3,1,false,z,true,false,0.0-2.0-0.30-0.271-3.271,0,1,1,81,false,stim,false,1,406.64999999990687,0,1,2,86523,WMM2,826536,false,false,936,image-keyboard-response,29
true,7,2,3,2,true,d,false,true,0.0-2.0-0.30-0.272-3.272,0,1,1,68,false,stim,false,2,1652.9549999994924,0,0,1,86523,WMM2,829715,false,false,939,image-keyboard-response,30
true,7,2,3,2,true,d,false,true,0.0-2.0-0.30-0.273-3.273,0,1,1,68,false,stim,false,2,408.2599999991944,0,0,1,86523,WMM2,831656,false,false,942,image-keyboard-response,31
true,7,2,3,2,true,d,false,true,0.0-2.0-0.30-0.274-3.274,0,1,1,68,false,stim,false,2,358.36000000010245,0,0,1,86523,WMM2,833540,false,false,945,image-keyboard-response,32
true,8,0,4,0,true,q,false,true,0.0-2.0-0.30-0.275-3.275,1,0,1,81,true,stim,false,0,695.9550000001909,0,1,0,86523,WMM2,835760,false,false,948,image-keyboard-response,1
true,8,1,4,1,true,z,false,true,0.0-2.0-0.30-0.276-3.276,1,0,1,90,false,stim,false,1,665.2800000001444,0,1,2,86523,WMM2,837961,false,false,951,image-keyboard-response,2
true,8,1,4,1,true,z,false,true,0.0-2.0-0.30-0.277-3.277,1,0,1,90,false,stim,false,1,345.7599999993108,0,1,2,86523,WMM2,839842,false,false,954,image-keyboard-response,3
true,8,0,4,0,true,q,false,true,0.0-2.0-0.30-0.278-3.278,1,0,1,81,false,stim,false,0,618.6099999995204,0,1,0,86523,WMM2,841980,false,false,957,image-keyboard-response,4
true,8,0,4,0,true,q,false,true,0.0-2.0-0.31-0.279-3.279,1,0,1,81,false,stim,false,0,501.80000000004657,0,1,0,86523,WMM2,844016,false,false,960,image-keyboard-response,5
true,8,1,4,1,true,z,false,false,0.0-2.0-0.31-0.280-3.280,1,0,1,90,false,stim,false,1,580.9600000001956,0,1,2,86523,WMM2,846128,false,true,963,image-keyboard-response,6
true,8,2,4,2,true,d,false,false,0.0-2.0-0.31-0.281-3.281,1,0,1,68,false,stim,false,2,487.57500000006985,0,0,1,86523,WMM2,848151,false,true,966,image-keyboard-response,7
true,8,1,4,2,false,d,true,false,0.0-2.0-0.31-0.282-3.282,1,0,1,90,false,stim,false,2,538.4200000007404,0,0,1,86523,WMM2,850218,false,false,969,image-keyboard-response,8
true,8,0,4,0,true,q,false,true,0.0-2.0-0.31-0.283-3.283,1,0,1,81,false,stim,false,0,591.1949999999488,0,1,0,86523,WMM2,852338,false,false,972,image-keyboard-response,9
true,8,2,4,1,false,z,true,false,0.0-2.0-0.31-0.284-3.284,1,0,1,68,false,stim,false,1,756.3000000000466,0,1,2,86523,WMM2,854621,false,false,975,image-keyboard-response,10
true,8,0,4,1,false,z,true,true,0.0-2.0-0.31-0.285-3.285,1,0,1,81,false,stim,false,1,599.2849999992177,0,1,2,86523,WMM2,856731,false,true,978,image-keyboard-response,11
true,8,0,4,0,true,q,false,false,0.0-2.0-0.31-0.286-3.286,1,0,1,81,false,stim,false,0,535.5350000000326,0,1,0,86523,WMM2,858801,false,true,981,image-keyboard-response,12
true,8,0,4,2,false,d,true,false,0.0-2.0-0.31-0.287-3.287,1,0,1,81,false,stim,false,2,980.504999999539,0,0,1,86523,WMM2,861302,false,false,984,image-keyboard-response,13
true,8,0,4,1,false,z,true,false,0.0-2.0-0.32-0.288-3.288,1,0,1,81,false,stim,false,1,384.2299999996321,0,1,2,86523,WMM2,863199,false,false,987,image-keyboard-response,14
true,8,0,4,1,false,z,true,false,0.0-2.0-0.32-0.289-3.289,1,0,1,81,false,stim,false,1,572.239999999525,0,1,2,86523,WMM2,865301,false,false,990,image-keyboard-response,15
true,8,1,4,0,false,q,true,false,0.0-2.0-0.32-0.290-3.290,1,0,1,90,false,stim,false,0,1265.2399999997579,0,1,0,86523,WMM2,868097,false,false,993,image-keyboard-response,16
true,8,2,4,0,false,q,true,false,0.0-2.0-0.32-0.291-3.291,1,0,1,68,false,stim,false,0,416.92999999946915,0,1,0,86523,WMM2,870048,false,false,996,image-keyboard-response,17
true,8,1,4,2,false,d,true,false,0.0-2.0-0.32-0.292-3.292,1,0,1,90,false,stim,false,2,968.7250000005588,0,0,1,86523,WMM2,872548,false,false,999,image-keyboard-response,18
true,8,2,4,0,false,q,true,true,0.0-2.0-0.32-0.293-3.293,1,0,1,68,false,stim,false,0,957.7249999992782,0,1,0,86523,WMM2,875040,false,true,1002,image-keyboard-response,19
true,8,0,4,2,false,d,true,false,0.0-2.0-0.32-0.294-3.294,1,0,1,81,false,stim,false,2,966.7950000003912,0,0,1,86523,WMM2,877520,false,false,1005,image-keyboard-response,20
true,8,1,4,1,true,z,false,true,0.0-2.0-0.32-0.295-3.295,1,0,1,90,false,stim,false,1,534.1549999993294,0,1,2,86523,WMM2,879582,false,false,1008,image-keyboard-response,21
true,8,2,4,2,true,d,false,true,0.0-2.0-0.32-0.296-3.296,1,0,1,68,false,stim,false,2,1009.6149999999907,0,0,1,86523,WMM2,882124,false,false,1011,image-keyboard-response,22
true,8,1,4,1,true,z,false,true,0.0-2.0-0.33-0.297-3.297,1,0,1,90,false,stim,false,1,693.8499999996275,0,1,2,86523,WMM2,884360,false,false,1014,image-keyboard-response,23
true,8,2,4,0,false,q,true,true,0.0-2.0-0.33-0.298-3.298,1,0,1,68,false,stim,false,0,671.4100000000326,0,1,0,86523,WMM2,886570,false,true,1017,image-keyboard-response,24
true,8,1,4,1,true,z,false,true,0.0-2.0-0.33-0.299-3.299,1,0,1,90,false,stim,false,1,471.44999999995343,0,1,2,86523,WMM2,888571,false,false,1020,image-keyboard-response,25
true,8,2,4,0,false,q,true,false,0.0-2.0-0.33-0.300-3.300,1,0,1,68,false,stim,false,0,581.9350000001723,0,1,0,86523,WMM2,890679,false,false,1023,image-keyboard-response,26
true,8,0,4,0,true,q,false,false,0.0-2.0-0.33-0.301-3.301,1,0,1,81,false,stim,false,0,348.7699999996694,0,1,0,86523,WMM2,892563,false,true,1026,image-keyboard-response,27
true,8,0,4,2,false,d,true,false,0.0-2.0-0.33-0.302-3.302,1,0,1,81,false,stim,false,2,2156.5900000005495,0,0,1,86523,WMM2,896255,false,false,1029,image-keyboard-response,28
true,8,1,4,2,false,d,true,false,0.0-2.0-0.33-0.303-3.303,1,0,1,90,false,stim,false,2,534.9699999997392,0,0,1,86523,WMM2,898319,false,false,1032,image-keyboard-response,29
true,8,2,4,2,true,d,false,true,0.0-2.0-0.33-0.304-3.304,1,0,1,68,false,stim,false,2,360.6400000008289,0,0,1,86523,WMM2,900209,false,false,1035,image-keyboard-response,30
true,8,1,4,1,true,z,false,true,0.0-2.0-0.33-0.305-3.305,1,0,1,90,false,stim,false,1,848.6650000003865,0,1,2,86523,WMM2,902582,false,false,1038,image-keyboard-response,31
true,8,2,4,0,false,q,true,false,0.0-2.0-0.34-0.306-3.306,1,0,1,68,false,stim,false,0,683.140000000014,0,1,0,86523,WMM2,904800,false,false,1041,image-keyboard-response,32
true,8,2,4,1,false,z,true,false,0.0-2.0-0.34-0.307-3.307,1,0,1,68,false,stim,false,1,497.6000000005588,0,1,2,86523,WMM2,906831,false,false,1044,image-keyboard-response,33
true,8,2,4,2,true,d,false,false,0.0-2.0-0.34-0.308-3.308,1,0,1,68,false,stim,false,2,449.3350000001956,0,0,1,86523,WMM2,908816,false,true,1047,image-keyboard-response,34
true,8,1,4,1,true,z,false,true,0.0-2.0-0.34-0.309-3.309,1,0,1,90,false,stim,false,1,747.3499999996275,0,1,2,86523,WMM2,911096,false,false,1050,image-keyboard-response,35
true,8,0,4,0,true,q,false,true,0.0-2.0-0.34-0.310-3.310,1,0,1,81,false,stim,false,0,686.4100000002654,0,1,0,86523,WMM2,913319,false,false,1053,image-keyboard-response,36
true,8,1,4,1,true,z,false,true,0.0-2.0-0.34-0.311-3.311,1,0,1,90,false,stim,false,1,766.4899999999907,0,1,2,86523,WMM2,915616,false,false,1056,image-keyboard-response,37
true,8,0,4,0,true,q,false,true,0.0-2.0-0.34-0.312-3.312,1,0,1,81,false,stim,false,0,664.7449999999953,0,1,0,86523,WMM2,917815,false,false,1059,image-keyboard-response,38
true,8,2,4,2,true,d,false,true,0.0-2.0-0.34-0.313-3.313,1,0,1,68,false,stim,false,2,1313.259999999893,0,1,1,86523,WMM2,920664,false,false,1062,image-keyboard-response,39
true,8,2,4,2,true,d,false,true,0.0-2.0-0.34-0.314-3.314,1,0,1,68,false,stim,false,2,505.46500000020023,0,1,1,86523,WMM2,922705,false,false,1065,image-keyboard-response,40
true,8,0,4,0,true,q,false,true,0.0-2.0-0.35-0.315-3.315,1,0,1,81,false,stim,false,0,584.6400000001304,0,1,0,86523,WMM2,924819,false,false,1068,image-keyboard-response,41
true,8,1,4,1,true,z,false,true,0.0-2.0-0.35-0.316-3.316,1,0,1,90,false,stim,false,1,480.18999999936204,0,0,2,86523,WMM2,926831,false,false,1071,image-keyboard-response,42
true,8,1,4,1,true,z,false,true,0.0-2.0-0.35-0.317-3.317,1,0,1,90,false,stim,false,1,465.0000000001164,0,0,2,86523,WMM2,928832,false,false,1074,image-keyboard-response,43
true,8,2,4,2,true,d,false,false,0.0-2.0-0.35-0.318-3.318,1,0,1,68,false,stim,false,2,416.8850000005914,0,1,1,86523,WMM2,930783,false,true,1077,image-keyboard-response,44
true,8,2,4,2,true,d,false,true,0.0-2.0-0.35-0.319-3.319,1,0,1,68,false,stim,false,2,445.6899999995949,0,1,1,86523,WMM2,932763,false,false,1080,image-keyboard-response,45
true,8,0,4,0,true,q,false,true,0.0-2.0-0.35-0.320-3.320,1,0,1,81,false,stim,false,0,1169.480000000447,0,1,0,86523,WMM2,935468,false,false,1083,image-keyboard-response,46
true,8,1,4,1,true,z,false,true,0.0-2.0-0.35-0.321-3.321,1,0,1,90,false,stim,false,1,728.930000000284,0,0,2,86523,WMM2,937732,false,false,1086,image-keyboard-response,47
true,8,2,4,2,true,d,false,true,0.0-2.0-0.35-0.322-3.322,1,0,1,68,false,stim,false,2,611.6799999999348,0,1,1,86523,WMM2,939879,false,false,1089,image-keyboard-response,48
true,9,0,3,0,true,q,false,false,0.0-2.0-0.35-0.323-3.323,1,1,0,81,true,stim,false,0,600.4100000000326,0,1,0,86523,WMM2,942002,false,true,1092,image-keyboard-response,1
true,9,1,3,0,false,q,true,false,0.0-2.0-0.36-0.324-3.324,1,1,0,90,false,stim,false,0,999.7850000000326,0,1,0,86523,WMM2,944536,false,false,1095,image-keyboard-response,2
true,9,2,3,2,true,d,false,true,0.0-2.0-0.36-0.325-3.325,1,1,0,68,false,stim,false,2,614.1950000000652,0,1,1,86523,WMM2,946678,false,false,1098,image-keyboard-response,3
true,9,2,3,2,true,d,false,true,0.0-2.0-0.36-0.326-3.326,1,1,0,68,false,stim,false,2,394.99999999953434,0,1,1,86523,WMM2,948625,false,false,1101,image-keyboard-response,4
true,9,1,3,0,false,q,false,true,0.0-2.0-0.36-0.327-3.327,1,1,0,90,false,stim,true,1,807.6350000001257,0,0,2,86523,WMM2,950958,false,true,1104,image-keyboard-response,5
true,9,0,3,0,true,q,false,false,0.0-2.0-0.36-0.328-3.328,1,1,0,81,false,stim,false,0,722.1800000006333,0,1,0,86523,WMM2,953207,false,true,1107,image-keyboard-response,6
true,9,1,3,0,false,q,true,false,0.0-2.0-0.36-0.329-3.329,1,1,0,90,false,stim,false,0,569.4949999997625,0,1,0,86523,WMM2,955305,false,false,1110,image-keyboard-response,7
true,9,2,3,0,false,q,true,false,0.0-2.0-0.36-0.330-3.330,1,1,0,68,false,stim,false,1,599.8499999996275,0,0,2,86523,WMM2,957433,false,false,1113,image-keyboard-response,8
true,9,2,3,2,true,d,false,false,0.0-2.0-0.36-0.331-3.331,1,1,0,68,false,stim,false,2,430.199999999837,0,1,1,86523,WMM2,959398,false,true,1116,image-keyboard-response,9
true,9,0,3,0,true,q,false,true,0.0-2.0-0.36-0.332-3.332,1,1,0,81,false,stim,false,1,871.1999999996042,0,0,2,86523,WMM2,961806,false,false,1119,image-keyboard-response,10
true,9,0,3,0,true,q,false,true,0.0-2.0-0.37-0.333-3.333,1,1,0,81,false,stim,false,1,439.5650000006426,0,0,2,86523,WMM2,963773,false,false,1122,image-keyboard-response,11
true,9,1,3,2,false,d,true,false,0.0-2.0-0.37-0.334-3.334,1,1,0,90,false,stim,false,2,815.725000000326,0,1,1,86523,WMM2,966101,false,false,1125,image-keyboard-response,12
true,9,0,3,0,true,q,false,true,0.0-2.0-0.37-0.335-3.335,1,1,0,81,false,stim,false,1,958.8549999997485,0,0,2,86523,WMM2,968594,false,false,1128,image-keyboard-response,13
true,9,2,3,0,false,q,true,false,0.0-2.0-0.37-0.336-3.336,1,1,0,68,false,stim,false,0,815.1099999996368,0,1,0,86523,WMM2,970933,false,false,1131,image-keyboard-response,14
true,9,0,3,0,true,q,false,true,0.0-2.0-0.37-0.337-3.337,1,1,0,81,false,stim,false,1,1013.8200000000652,0,0,2,86523,WMM2,973480,false,false,1134,image-keyboard-response,15
true,9,1,3,2,false,d,true,false,0.0-2.0-0.37-0.338-3.338,1,1,0,90,false,stim,false,2,669.4499999993714,0,1,1,86523,WMM2,975687,false,false,1137,image-keyboard-response,16
true,9,2,3,2,true,d,false,true,0.0-2.0-0.37-0.339-3.339,1,1,0,68,false,stim,false,2,688.9550000005402,0,1,1,86523,WMM2,977907,false,false,1140,image-keyboard-response,17
true,9,0,3,0,true,q,false,true,0.0-2.0-0.37-0.340-3.340,1,1,0,81,false,stim,false,0,685.0450000002747,0,1,0,86523,WMM2,980119,false,false,1143,image-keyboard-response,18
true,9,0,3,0,true,q,false,false,0.0-2.0-0.37-0.341-3.341,1,1,0,81,false,stim,false,0,612.5900000006659,0,1,0,86523,WMM2,982248,false,true,1146,image-keyboard-response,19
true,9,2,3,0,false,q,true,true,0.0-2.0-0.38-0.342-3.342,1,1,0,68,false,stim,false,0,722.104999999865,0,1,0,86523,WMM2,984507,false,true,1149,image-keyboard-response,20
true,9,1,3,0,false,q,false,false,0.0-2.0-0.38-0.343-3.343,1,1,0,90,false,stim,true,1,670.9399999999441,0,0,2,86523,WMM2,986704,false,false,1152,image-keyboard-response,21
true,9,0,3,2,false,d,true,false,0.0-2.0-0.38-0.344-3.344,1,1,0,81,false,stim,false,2,798.0499999994645,0,1,1,86523,WMM2,989033,false,false,1155,image-keyboard-response,22
true,9,2,3,2,true,d,false,true,0.0-2.0-0.38-0.345-3.345,1,1,0,68,false,stim,false,2,511.1699999998091,0,1,1,86523,WMM2,991065,false,false,1158,image-keyboard-response,23
true,9,1,3,0,false,q,true,false,0.0-2.0-0.38-0.346-3.346,1,1,0,90,false,stim,false,0,632.679999999702,0,1,0,86523,WMM2,993219,false,false,1161,image-keyboard-response,24
true,9,2,3,0,false,q,true,false,0.0-2.0-0.38-0.347-3.347,1,1,0,68,false,stim,false,1,769.515000000014,0,0,2,86523,WMM2,995521,false,false,1164,image-keyboard-response,25
true,9,0,3,0,true,q,false,true,0.0-2.0-0.38-0.348-3.348,1,1,0,81,false,stim,false,0,597.9600000000792,0,1,0,86523,WMM2,997651,false,false,1167,image-keyboard-response,26
true,9,1,3,2,false,d,true,false,0.0-2.0-0.38-0.349-3.349,1,1,0,90,false,stim,false,2,518.4200000003912,0,1,1,86523,WMM2,999702,false,false,1170,image-keyboard-response,27
true,9,2,3,0,false,q,true,false,0.0-2.0-0.38-0.350-3.350,1,1,0,68,false,stim,false,1,565.0399999995716,0,0,2,86523,WMM2,1001801,false,false,1173,image-keyboard-response,28
true,9,0,3,0,true,q,false,true,0.0-2.0-0.39-0.351-3.351,1,1,0,81,false,stim,false,0,565.6949999993667,0,1,0,86523,WMM2,1003885,false,false,1176,image-keyboard-response,29
true,9,0,3,0,true,q,false,true,0.0-2.0-0.39-0.352-3.352,1,1,0,81,false,stim,false,0,538.0399999994552,0,1,0,86523,WMM2,1005957,false,false,1179,image-keyboard-response,30
true,9,0,3,2,false,d,true,false,0.0-2.0-0.39-0.353-3.353,1,1,0,81,false,stim,false,2,568.229999999865,0,1,1,86523,WMM2,1008054,false,false,1182,image-keyboard-response,31
true,9,1,3,0,false,q,false,false,0.0-2.0-0.39-0.354-3.354,1,1,0,90,false,stim,true,1,721.5399999995716,0,0,2,86523,WMM2,1010306,false,false,1185,image-keyboard-response,32
true,9,0,3,0,true,q,false,true,0.0-2.0-0.39-0.355-3.355,1,1,0,81,false,stim,false,0,725.1550000000279,0,1,0,86523,WMM2,1012562,false,false,1188,image-keyboard-response,33
true,9,1,3,2,false,d,true,false,0.0-2.0-0.39-0.356-3.356,1,1,0,90,false,stim,false,2,1530.66500000027,0,1,1,86523,WMM2,1015626,false,false,1191,image-keyboard-response,34
true,9,2,3,0,false,q,true,false,0.0-2.0-0.39-0.357-3.357,1,1,0,68,false,stim,false,1,603.3349999997299,0,0,2,86523,WMM2,1017770,false,false,1194,image-keyboard-response,35
true,9,0,3,0,true,q,false,true,0.0-2.0-0.39-0.358-3.358,1,1,0,81,false,stim,false,1,424.89500000013504,0,0,2,86523,WMM2,1019725,false,false,1197,image-keyboard-response,36
true,9,0,3,2,false,d,true,false,0.0-2.0-0.39-0.359-3.359,1,1,0,81,false,stim,false,2,587.410000000149,0,1,1,86523,WMM2,1021838,false,false,1200,image-keyboard-response,37
true,9,0,3,0,true,q,false,true,0.0-2.0-0.40-0.360-3.360,1,1,0,81,false,stim,false,1,923.8049999994691,0,0,2,86523,WMM2,1024308,false,false,1203,image-keyboard-response,38
true,9,1,3,0,false,q,true,false,0.0-2.0-0.40-0.361-3.361,1,1,0,90,false,stim,false,0,673.9299999999348,0,1,0,86523,WMM2,1026508,false,false,1206,image-keyboard-response,39
true,9,0,3,2,false,d,true,false,0.0-2.0-0.40-0.362-3.362,1,1,0,81,false,stim,false,2,746.2299999997485,0,1,1,86523,WMM2,1028797,false,false,1209,image-keyboard-response,40
true,9,2,3,0,false,q,true,false,0.0-2.0-0.40-0.363-3.363,1,1,0,68,false,stim,false,1,697.1850000000559,0,0,2,86523,WMM2,1031030,false,false,1212,image-keyboard-response,41
true,9,0,3,0,true,q,false,true,0.0-2.0-0.40-0.364-3.364,1,1,0,81,false,stim,false,0,1179.255000000121,0,1,0,86523,WMM2,1033742,false,false,1215,image-keyboard-response,42
true,9,0,3,0,true,q,false,true,0.0-2.0-0.40-0.365-3.365,1,1,0,81,false,stim,false,0,989.1650000008522,0,1,0,86523,WMM2,1036258,false,false,1218,image-keyboard-response,43
true,9,0,3,2,false,d,true,false,0.0-2.0-0.40-0.366-3.366,1,1,0,81,false,stim,false,2,759.4850000005681,0,1,1,86523,WMM2,1038545,false,false,1221,image-keyboard-response,44
true,9,1,3,0,false,q,false,false,0.0-2.0-0.40-0.367-3.367,1,1,0,90,false,stim,true,1,1774.430000000284,0,0,2,86523,WMM2,1041859,false,false,1224,image-keyboard-response,45
true,9,2,3,2,true,d,false,true,0.0-2.0-0.40-0.368-3.368,1,1,0,68,false,stim,false,2,898.3799999996554,0,1,1,86523,WMM2,1044284,false,false,1227,image-keyboard-response,46
true,9,0,3,0,true,q,false,true,0.0-2.0-0.41-0.369-3.369,1,1,0,81,false,stim,false,0,618.5399999995716,0,1,0,86523,WMM2,1046436,false,false,1230,image-keyboard-response,47
true,9,2,3,2,true,d,false,true,0.0-2.0-0.41-0.370-3.370,1,1,0,68,false,stim,false,2,560.2049999998417,0,1,1,86523,WMM2,1048528,false,false,1233,image-keyboard-response,48
true,9,2,3,0,false,q,true,false,0.0-2.0-0.41-0.371-3.371,1,1,0,68,false,stim,false,1,381.42999999946915,0,0,2,86523,WMM2,1050449,false,false,1236,image-keyboard-response,49
true,9,0,3,0,true,q,false,true,0.0-2.0-0.41-0.372-3.372,1,1,0,81,false,stim,false,0,470.15500000002794,0,1,0,86523,WMM2,1052456,false,false,1239,image-keyboard-response,50
true,9,1,3,0,false,q,false,false,0.0-2.0-0.41-0.373-3.373,1,1,0,90,false,stim,true,1,587.4500000001863,0,0,2,86523,WMM2,1054573,false,false,1242,image-keyboard-response,51
true,9,0,3,0,true,q,false,true,0.0-2.0-0.41-0.374-3.374,1,1,0,81,false,stim,false,0,548.5250000001397,0,1,0,86523,WMM2,1056648,false,false,1245,image-keyboard-response,52
true,9,0,3,0,true,q,false,true,0.0-2.0-0.41-0.375-3.375,1,1,0,81,false,stim,false,1,373.86999999941327,0,0,2,86523,WMM2,1058556,false,false,1248,image-keyboard-response,53
true,9,2,3,2,true,d,false,true,0.0-2.0-0.41-0.376-3.376,1,1,0,68,false,stim,false,2,537.3799999998882,0,0,1,86523,WMM2,1060622,false,false,1251,image-keyboard-response,54
true,9,2,3,2,true,d,false,true,0.0-2.0-0.41-0.377-3.377,1,1,0,68,false,stim,false,2,585.7649999998976,0,0,1,86523,WMM2,1062738,false,false,1254,image-keyboard-response,55
true,9,2,3,2,true,d,false,true,0.0-2.0-0.42-0.378-3.378,1,1,0,68,false,stim,false,2,424.6650000005029,0,0,1,86523,WMM2,1064692,false,false,1257,image-keyboard-response,56
true,9,0,3,0,true,q,false,true,0.0-2.0-0.42-0.379-3.379,1,1,0,81,false,stim,false,0,604.5699999993667,0,1,0,86523,WMM2,1066823,false,false,1260,image-keyboard-response,57
true,9,0,3,0,true,q,false,true,0.0-2.0-0.42-0.380-3.380,1,1,0,81,false,stim,false,1,647.0749999999534,0,0,2,86523,WMM2,1068998,false,false,1263,image-keyboard-response,58
true,9,0,3,0,true,q,false,true,0.0-2.0-0.42-0.381-3.381,1,1,0,81,false,stim,false,0,625.100000000326,0,1,0,86523,WMM2,1071161,false,false,1266,image-keyboard-response,59
true,9,0,3,0,true,q,false,true,0.0-2.0-0.42-0.382-3.382,1,1,0,81,false,stim,false,0,712.7700000000186,0,1,0,86523,WMM2,1073399,false,false,1269,image-keyboard-response,60
true,10,2,1,0,false,q,false,false,0.0-2.0-0.42-0.383-3.383,1,0,0,68,true,stim,true,2,428.6149999999907,0,0,1,86523,WMM2,1075363,false,false,1272,image-keyboard-response,1
true,10,0,1,2,false,d,false,false,0.0-2.0-0.42-0.384-3.384,1,0,0,81,false,stim,true,0,880.8500000005588,0,0,2,86523,WMM2,1077769,false,false,1275,image-keyboard-response,2
true,10,1,1,0,false,q,true,false,0.0-2.0-0.42-0.385-3.385,1,0,0,90,false,stim,false,2,733.0399999991059,0,0,1,86523,WMM2,1080039,false,false,1278,image-keyboard-response,3
true,10,1,1,2,false,d,true,false,0.0-2.0-0.42-0.386-3.386,1,0,0,90,false,stim,false,0,1376.8450000006706,0,0,2,86523,WMM2,1082934,false,false,1281,image-keyboard-response,4
true,10,0,1,0,true,q,false,true,0.0-2.0-0.43-0.387-3.387,1,0,0,81,false,stim,false,0,596.6250000002328,0,1,0,86523,WMM2,1085052,false,false,1284,image-keyboard-response,5
true,10,0,1,0,true,q,false,true,0.0-2.0-0.43-0.388-3.388,1,0,0,81,false,stim,false,0,549.3799999994226,0,1,0,86523,WMM2,1087121,false,false,1287,image-keyboard-response,6
true,10,0,1,0,true,q,false,true,0.0-2.0-0.43-0.389-3.389,1,0,0,81,false,stim,false,2,416.1500000001397,0,0,1,86523,WMM2,1089071,false,false,1290,image-keyboard-response,7
true,10,2,1,2,true,d,false,true,0.0-2.0-0.43-0.390-3.390,1,0,0,68,false,stim,false,0,804.0999999993946,0,0,2,86523,WMM2,1091400,false,false,1293,image-keyboard-response,8
true,10,0,1,0,true,q,false,true,0.0-2.0-0.43-0.391-3.391,1,0,0,81,false,stim,false,2,1331.829999999376,0,0,1,86523,WMM2,1094272,false,false,1296,image-keyboard-response,9
true,10,0,1,0,true,q,false,true,0.0-2.0-0.43-0.392-3.392,1,0,0,81,false,stim,false,0,629.045000000624,0,1,0,86523,WMM2,1096430,false,false,1299,image-keyboard-response,10
true,10,2,1,2,true,d,false,true,0.0-2.0-0.43-0.393-3.393,1,0,0,68,false,stim,false,0,357.8550000002142,0,0,2,86523,WMM2,1098331,false,false,1302,image-keyboard-response,11
true,10,2,1,2,true,d,false,true,0.0-2.0-0.43-0.394-3.394,1,0,0,68,false,stim,false,0,447.17499999911524,0,0,2,86523,WMM2,1100300,false,false,1305,image-keyboard-response,12
true,10,0,1,0,true,q,false,true,0.0-2.0-0.43-0.395-3.395,1,0,0,81,false,stim,false,2,536.0849999997299,0,0,1,86523,WMM2,1102359,false,false,1308,image-keyboard-response,13
true,10,0,1,0,true,q,false,true,0.0-2.0-0.44-0.396-3.396,1,0,0,81,false,stim,false,2,540.6850000000559,0,0,1,86523,WMM2,1104432,false,false,1311,image-keyboard-response,14
true,10,0,1,0,true,q,false,true,0.0-2.0-0.44-0.397-3.397,1,0,0,81,false,stim,false,2,501.35000000032596,0,0,1,86523,WMM2,1106458,false,false,1314,image-keyboard-response,15
true,10,0,1,2,false,d,false,false,0.0-2.0-0.44-0.398-3.398,1,0,0,81,false,stim,true,0,738.9149999998044,0,0,2,86523,WMM2,1108729,false,false,1317,image-keyboard-response,16
true,10,2,1,2,true,d,false,true,0.0-2.0-0.44-0.399-3.399,1,0,0,68,false,stim,false,0,522.5300000000279,0,0,2,86523,WMM2,1110779,false,false,1320,image-keyboard-response,17
true,10,0,1,0,true,q,false,true,0.0-2.0-0.44-0.400-3.400,1,0,0,81,false,stim,false,0,660.399999999674,0,1,0,86523,WMM2,1112968,false,false,1323,image-keyboard-response,18
true,10,0,1,0,true,q,false,true,0.0-2.0-0.44-0.401-3.401,1,0,0,81,false,stim,false,0,515.8249999994878,0,1,0,86523,WMM2,1115006,false,false,1326,image-keyboard-response,19
true,10,2,1,2,true,d,false,true,0.0-2.0-0.44-0.402-3.402,1,0,0,68,false,stim,false,0,620.019999999553,0,0,2,86523,WMM2,1117161,false,false,1329,image-keyboard-response,20
true,10,0,1,0,true,q,false,true,0.0-2.0-0.44-0.403-3.403,1,0,0,81,false,stim,false,2,766.0550000001676,0,0,1,86523,WMM2,1119455,false,false,1332,image-keyboard-response,21
true,10,0,1,0,true,q,false,true,0.0-2.0-0.44-0.404-3.404,1,0,0,81,false,stim,false,0,311.4949999998789,0,1,0,86523,WMM2,1121291,false,false,1335,image-keyboard-response,22
true,10,0,1,0,true,q,false,true,0.0-2.0-0.45-0.405-3.405,1,0,0,81,false,stim,false,2,359.18000000040047,0,0,1,86523,WMM2,1123183,false,false,1338,image-keyboard-response,23
true,10,0,1,0,true,q,false,true,0.0-2.0-0.45-0.406-3.406,1,0,0,81,false,stim,false,0,645.1349999997765,0,1,0,86523,WMM2,1125353,false,false,1341,image-keyboard-response,24
true,10,0,1,0,true,q,false,true,0.0-2.0-0.45-0.407-3.407,1,0,0,81,false,stim,false,0,436.9349999995902,0,1,0,86523,WMM2,1127325,false,false,1344,image-keyboard-response,25
true,10,2,1,2,true,d,false,true,0.0-2.0-0.45-0.408-3.408,1,0,0,68,false,stim,false,0,675.0000000002328,0,1,2,86523,WMM2,1129532,false,false,1347,image-keyboard-response,26
true,10,2,1,2,true,d,false,true,0.0-2.0-0.45-0.409-3.409,1,0,0,68,false,stim,false,0,384.65500000072643,0,1,2,86523,WMM2,1131441,false,false,1350,image-keyboard-response,27
true,10,0,1,0,true,q,false,true,0.0-2.0-0.45-0.410-3.410,1,0,0,81,false,stim,false,0,473.6150000006892,0,1,0,86523,WMM2,1133448,false,false,1353,image-keyboard-response,28
true,10,0,1,0,true,q,false,true,0.0-2.0-0.45-0.411-3.411,1,0,0,81,false,stim,false,2,367.72500000009313,0,0,1,86523,WMM2,1135343,false,false,1356,image-keyboard-response,29
true,10,2,1,2,true,d,false,true,0.0-2.0-0.45-0.412-3.412,1,0,0,68,false,stim,false,0,440.1200000003446,0,1,2,86523,WMM2,1137314,false,false,1359,image-keyboard-response,30
true,11,0,2,2,false,d,false,false,0.0-2.0-0.45-0.413-3.413,1,0,1,81,true,stim,true,0,511.3650000002235,0,0,1,86523,WMM2,1139351,false,false,1362,image-keyboard-response,1
true,11,0,2,0,true,q,false,true,0.0-2.0-0.46-0.414-3.414,1,0,1,81,false,stim,false,0,635.9000000003725,0,1,0,86523,WMM2,1141512,false,false,1365,image-keyboard-response,2
true,11,0,2,0,true,q,false,true,0.0-2.0-0.46-0.415-3.415,1,0,1,81,false,stim,false,0,473.70500000054017,0,1,0,86523,WMM2,1143497,false,false,1368,image-keyboard-response,3
true,11,1,2,2,false,d,true,false,0.0-2.0-0.46-0.416-3.416,1,0,1,90,false,stim,false,0,378.9799999992829,0,0,1,86523,WMM2,1145402,false,false,1371,image-keyboard-response,4
true,11,2,2,2,true,d,false,true,0.0-2.0-0.46-0.417-3.417,1,0,1,68,false,stim,false,0,387.0750000006519,0,0,1,86523,WMM2,1147325,false,false,1374,image-keyboard-response,5
true,11,2,2,2,true,d,false,false,0.0-2.0-0.46-0.418-3.418,1,0,1,68,false,stim,false,2,590.6299999998882,0,1,2,86523,WMM2,1149448,false,true,1377,image-keyboard-response,6
true,11,0,2,0,true,q,false,true,0.0-2.0-0.46-0.419-3.419,1,0,1,81,false,stim,false,0,431.8249999997206,0,1,0,86523,WMM2,1151418,false,false,1380,image-keyboard-response,7
true,11,1,2,2,false,d,true,false,0.0-2.0-0.46-0.420-3.420,1,0,1,90,false,stim,false,2,433.29999999981374,0,1,2,86523,WMM2,1153390,false,false,1383,image-keyboard-response,8
true,11,2,2,2,true,d,false,true,0.0-2.0-0.46-0.421-3.421,1,0,1,68,false,stim,false,0,761.6100000005681,0,0,1,86523,WMM2,1155685,false,false,1386,image-keyboard-response,9
true,11,0,2,2,false,d,true,false,0.0-2.0-0.46-0.422-3.422,1,0,1,81,false,stim,false,2,339.4650000000838,0,1,2,86523,WMM2,1157563,false,false,1389,image-keyboard-response,10
true,11,1,2,2,false,d,true,true,0.0-2.0-0.47-0.423-3.423,1,0,1,90,false,stim,false,2,460.5300000004936,0,1,2,86523,WMM2,1159551,false,true,1392,image-keyboard-response,11
true,11,1,2,2,false,d,true,true,0.0-2.0-0.47-0.424-3.424,1,0,1,90,false,stim,false,2,453.7599999993108,0,1,2,86523,WMM2,1161543,false,true,1395,image-keyboard-response,12
true,11,1,2,2,false,d,true,false,0.0-2.0-0.47-0.425-3.425,1,0,1,90,false,stim,false,2,406.19499999959953,0,1,2,86523,WMM2,1163479,false,false,1398,image-keyboard-response,13
true,11,2,2,2,true,d,false,true,0.0-2.0-0.47-0.426-3.426,1,0,1,68,false,stim,false,0,641.6850000005215,0,0,1,86523,WMM2,1165668,false,false,1401,image-keyboard-response,14
true,11,0,2,0,true,q,false,false,0.0-2.0-0.47-0.427-3.427,1,0,1,81,false,stim,false,0,535.6799999999348,0,1,0,86523,WMM2,1167727,false,true,1404,image-keyboard-response,15
true,11,1,2,0,false,q,true,false,0.0-2.0-0.47-0.428-3.428,1,0,1,90,false,stim,false,0,426.08499999996275,0,1,0,86523,WMM2,1169684,false,false,1407,image-keyboard-response,16
true,11,2,2,2,true,d,false,true,0.0-2.0-0.47-0.429-3.429,1,0,1,68,false,stim,false,0,330.6199999996461,0,0,1,86523,WMM2,1171554,false,false,1410,image-keyboard-response,17
true,11,2,2,0,false,q,true,false,0.0-2.0-0.47-0.430-3.430,1,0,1,68,false,stim,false,0,311.3350000001956,0,1,0,86523,WMM2,1173401,false,false,1413,image-keyboard-response,18
true,11,2,2,2,true,d,false,true,0.0-2.0-0.47-0.431-3.431,1,0,1,68,false,stim,false,0,608.2950000001583,0,0,1,86523,WMM2,1175533,false,false,1416,image-keyboard-response,19
true,11,2,2,2,true,d,false,true,0.0-2.0-0.48-0.432-3.432,1,0,1,68,false,stim,false,0,434.48500000080094,0,0,1,86523,WMM2,1177492,false,false,1419,image-keyboard-response,20
true,11,1,2,2,false,d,true,false,0.0-2.0-0.48-0.433-3.433,1,0,1,90,false,stim,false,2,1179.9300000001676,0,1,2,86523,WMM2,1180204,false,false,1422,image-keyboard-response,21
true,11,1,2,0,false,q,true,false,0.0-2.0-0.48-0.434-3.434,1,0,1,90,false,stim,false,0,1189.625,0,1,0,86523,WMM2,1182932,false,false,1425,image-keyboard-response,22
true,11,2,2,0,false,q,true,false,0.0-2.0-0.48-0.435-3.435,1,0,1,68,false,stim,false,0,465.3450000004377,0,1,0,86523,WMM2,1184924,false,false,1428,image-keyboard-response,23
true,11,2,2,2,true,d,false,true,0.0-2.0-0.48-0.436-3.436,1,0,1,68,false,stim,false,0,933.3800000003539,0,0,1,86523,WMM2,1187391,false,false,1431,image-keyboard-response,24
true,11,0,2,0,true,q,false,true,0.0-2.0-0.48-0.437-3.437,1,0,1,81,false,stim,false,0,430.1749999993481,0,1,0,86523,WMM2,1189355,false,false,1434,image-keyboard-response,25
true,11,2,2,2,true,d,false,true,0.0-2.0-0.48-0.438-3.438,1,0,1,68,false,stim,false,2,631.7849999996834,0,1,2,86523,WMM2,1191524,false,false,1437,image-keyboard-response,26
true,11,2,2,2,true,d,false,true,0.0-2.0-0.48-0.439-3.439,1,0,1,68,false,stim,false,0,425.71500000031665,0,0,1,86523,WMM2,1193485,false,false,1440,image-keyboard-response,27
true,11,2,2,2,true,d,false,true,0.0-2.0-0.48-0.440-3.440,1,0,1,68,false,stim,false,2,493.1349999997765,0,1,2,86523,WMM2,1195519,false,false,1443,image-keyboard-response,28
true,11,2,2,2,true,d,false,true,0.0-2.0-0.49-0.441-3.441,1,0,1,68,false,stim,false,0,458.46000000089407,0,0,1,86523,WMM2,1197501,false,false,1446,image-keyboard-response,29
true,11,2,2,2,true,d,false,true,0.0-2.0-0.49-0.442-3.442,1,0,1,68,false,stim,false,0,361.5900000005495,0,0,1,86523,WMM2,1199405,false,false,1449,image-keyboard-response,30
true,11,0,2,0,true,q,false,true,0.0-2.0-0.49-0.443-3.443,1,0,1,81,false,stim,false,0,517.169999999227,0,1,0,86523,WMM2,1201461,false,false,1452,image-keyboard-response,31
true,11,0,2,0,true,q,false,true,0.0-2.0-0.49-0.444-3.444,1,0,1,81,false,stim,false,0,388.0500000005122,0,1,0,86523,WMM2,1203381,false,false,1455,image-keyboard-response,32
true,11,2,2,2,true,d,false,true,0.0-2.0-0.49-0.445-3.445,1,0,1,68,false,stim,false,0,687.9600000001956,0,0,1,86523,WMM2,1205598,false,false,1458,image-keyboard-response,33
true,11,2,2,2,true,d,false,true,0.0-2.0-0.49-0.446-3.446,1,0,1,68,false,stim,false,2,795.2300000006799,0,1,2,86523,WMM2,1207921,false,false,1461,image-keyboard-response,34
true,11,2,2,2,true,d,false,true,0.0-2.0-0.49-0.447-3.447,1,0,1,68,false,stim,false,2,443.14999999990687,0,1,2,86523,WMM2,1209901,false,false,1464,image-keyboard-response,35
true,11,2,2,2,true,d,false,true,0.0-2.0-0.49-0.448-3.448,1,0,1,68,false,stim,false,2,373.6399999996647,0,1,2,86523,WMM2,1211801,false,false,1467,image-keyboard-response,36
true,11,0,2,0,true,q,false,true,0.0-2.0-0.49-0.449-3.449,1,0,1,81,false,stim,false,0,546.3500000005588,0,1,0,86523,WMM2,1213873,false,false,1470,image-keyboard-response,37
true,11,2,2,2,true,d,false,true,0.0-2.0-0.50-0.450-3.450,1,0,1,68,false,stim,false,2,778.4599999994971,0,1,2,86523,WMM2,1216188,false,false,1473,image-keyboard-response,38
true,11,0,2,0,true,q,false,true,0.0-2.0-0.50-0.451-3.451,1,0,1,81,false,stim,false,0,503.9949999998789,0,1,0,86523,WMM2,1218231,false,false,1476,image-keyboard-response,39
true,11,0,2,0,true,q,false,true,0.0-2.0-0.50-0.452-3.452,1,0,1,81,false,stim,false,0,461.2350000005681,0,1,0,86523,WMM2,1220224,false,false,1479,image-keyboard-response,40
true,11,2,2,2,true,d,false,true,0.0-2.0-0.50-0.453-3.453,1,0,1,68,false,stim,false,0,597.3600000005681,0,0,1,86523,WMM2,1222341,false,false,1482,image-keyboard-response,41
true,12,2,4,2,true,d,false,true,0.0-2.0-0.50-0.454-3.454,1,0,1,68,true,stim,false,2,489.9800000002142,0,0,1,86523,WMM2,1224366,false,false,1485,image-keyboard-response,1
true,12,0,4,0,true,q,false,true,0.0-2.0-0.50-0.455-3.455,1,0,1,81,false,stim,false,0,467.79499999945983,0,1,0,86523,WMM2,1226360,false,false,1488,image-keyboard-response,2
true,12,2,4,2,true,d,false,true,0.0-2.0-0.50-0.456-3.456,1,0,1,68,false,stim,false,2,496.0199999997858,0,0,1,86523,WMM2,1228390,false,false,1491,image-keyboard-response,3
true,12,2,4,2,true,d,false,true,0.0-2.0-0.50-0.457-3.457,1,0,1,68,false,stim,false,2,794.1500000006054,0,1,2,86523,WMM2,1230722,false,false,1494,image-keyboard-response,4
true,12,2,4,2,true,d,false,false,0.0-2.0-0.50-0.458-3.458,1,0,1,68,false,stim,false,2,463.80999999912456,0,1,2,86523,WMM2,1232724,false,true,1497,image-keyboard-response,5
true,12,1,4,2,false,d,true,false,0.0-2.0-0.51-0.459-3.459,1,0,1,90,false,stim,false,2,752.940000000177,0,1,2,86523,WMM2,1235015,false,false,1500,image-keyboard-response,6
true,12,0,4,0,true,q,false,true,0.0-2.0-0.51-0.460-3.460,1,0,1,81,false,stim,false,0,545.4200000003912,0,1,0,86523,WMM2,1237106,false,false,1503,image-keyboard-response,7
true,12,0,4,0,true,q,false,true,0.0-2.0-0.51-0.461-3.461,1,0,1,81,false,stim,false,0,682.9500000004191,0,1,0,86523,WMM2,1239328,false,false,1506,image-keyboard-response,8
true,12,0,4,2,false,d,true,false,0.0-2.0-0.51-0.462-3.462,1,0,1,81,false,stim,false,2,501.9499999997206,0,0,1,86523,WMM2,1241362,false,false,1509,image-keyboard-response,9
true,12,0,4,2,false,d,true,false,0.0-2.0-0.51-0.463-3.463,1,0,1,81,false,stim,false,2,468.25499999988824,0,0,1,86523,WMM2,1243362,false,false,1512,image-keyboard-response,10
true,12,2,4,2,true,d,false,false,0.0-2.0-0.51-0.464-3.464,1,0,1,68,false,stim,false,2,1383.0200000002515,0,1,2,86523,WMM2,1246276,false,true,1515,image-keyboard-response,11
true,12,1,4,2,false,d,true,false,0.0-2.0-0.51-0.465-3.465,1,0,1,90,false,stim,false,2,625.6050000002142,0,1,2,86523,WMM2,1248437,false,false,1518,image-keyboard-response,12
true,12,0,4,2,false,d,true,false,0.0-2.0-0.51-0.466-3.466,1,0,1,81,false,stim,false,2,613.3649999999907,0,0,1,86523,WMM2,1250576,false,false,1521,image-keyboard-response,13
true,12,0,4,0,true,q,false,true,0.0-2.0-0.51-0.467-3.467,1,0,1,81,false,stim,false,0,693.0300000002608,0,1,0,86523,WMM2,1252804,false,false,1524,image-keyboard-response,14
true,12,1,4,2,false,d,true,false,0.0-2.0-0.52-0.468-3.468,1,0,1,90,false,stim,false,2,684.4850000008009,0,1,2,86523,WMM2,1255013,false,false,1527,image-keyboard-response,15
true,12,0,4,2,false,d,true,false,0.0-2.0-0.52-0.469-3.469,1,0,1,81,false,stim,false,2,463.7549999996554,0,1,2,86523,WMM2,1257008,false,false,1530,image-keyboard-response,16
true,12,0,4,0,true,q,false,false,0.0-2.0-0.52-0.470-3.470,1,0,1,81,false,stim,false,0,736.6000000000931,0,1,0,86523,WMM2,1259281,false,true,1533,image-keyboard-response,17
true,12,1,4,0,false,q,true,false,0.0-2.0-0.52-0.471-3.471,1,0,1,90,false,stim,false,0,606.2800000000279,0,1,0,86523,WMM2,1261417,false,false,1536,image-keyboard-response,18
true,12,2,4,2,true,d,false,true,0.0-2.0-0.52-0.472-3.472,1,0,1,68,false,stim,false,2,690.3650000002235,0,0,1,86523,WMM2,1263635,false,false,1539,image-keyboard-response,19
true,12,2,4,2,true,d,false,true,0.0-2.0-0.52-0.473-3.473,1,0,1,68,false,stim,false,2,443.04000000003725,0,0,1,86523,WMM2,1265602,false,false,1542,image-keyboard-response,20
true,12,2,4,2,true,d,false,true,0.0-2.0-0.52-0.474-3.474,1,0,1,68,false,stim,false,2,409.05500000016764,0,1,2,86523,WMM2,1267552,false,false,1545,image-keyboard-response,21
true,12,2,4,0,false,q,true,false,0.0-2.0-0.52-0.475-3.475,1,0,1,68,false,stim,false,0,495.10000000009313,0,1,0,86523,WMM2,1269591,false,false,1548,image-keyboard-response,22
true,12,2,4,2,true,d,false,true,0.0-2.0-0.52-0.476-3.476,1,0,1,68,false,stim,false,2,711.3499999996275,0,0,1,86523,WMM2,1271838,false,false,1551,image-keyboard-response,23
true,12,2,4,2,true,d,false,true,0.0-2.0-0.53-0.477-3.477,1,0,1,68,false,stim,false,2,487.365000000922,0,1,2,86523,WMM2,1273867,false,false,1554,image-keyboard-response,24
true,12,2,4,2,true,d,false,true,0.0-2.0-0.53-0.478-3.478,1,0,1,68,false,stim,false,2,655.8250000006519,0,0,1,86523,WMM2,1276053,false,false,1557,image-keyboard-response,25
true,12,2,4,2,true,d,false,true,0.0-2.0-0.53-0.479-3.479,1,0,1,68,false,stim,false,2,598.7949999996927,0,1,2,86523,WMM2,1278195,false,false,1560,image-keyboard-response,26
true,12,2,4,2,true,d,false,true,0.0-2.0-0.53-0.480-3.480,1,0,1,68,false,stim,false,2,421.15999999968335,0,0,1,86523,WMM2,1280148,false,false,1563,image-keyboard-response,27
true,12,0,4,0,true,q,false,true,0.0-2.0-0.53-0.481-3.481,1,0,1,81,false,stim,false,0,805.5950000006706,0,1,0,86523,WMM2,1282485,false,false,1566,image-keyboard-response,28
true,12,2,4,2,true,d,false,true,0.0-2.0-0.53-0.482-3.482,1,0,1,68,false,stim,false,2,804.7049999996088,0,0,1,86523,WMM2,1284818,false,false,1569,image-keyboard-response,29
true,12,0,4,0,true,q,false,true,0.0-2.0-0.53-0.483-3.483,1,0,1,81,false,stim,false,0,633.5149999996647,0,1,0,86523,WMM2,1286979,false,false,1572,image-keyboard-response,30
true,12,0,4,0,true,q,false,true,0.0-2.0-0.53-0.484-3.484,1,0,1,81,false,stim,false,0,427.9850000003353,0,1,0,86523,WMM2,1288943,false,false,1575,image-keyboard-response,31
true,12,2,4,2,true,d,false,true,0.0-2.0-0.53-0.485-3.485,1,0,1,68,false,stim,false,2,541.0050000001211,0,1,2,86523,WMM2,1291020,false,false,1578,image-keyboard-response,32
true,12,0,4,2,false,d,true,false,0.0-2.0-0.54-0.486-3.486,1,0,1,81,false,stim,false,2,1281.0400000000373,0,0,1,86523,WMM2,1293826,false,false,1581,image-keyboard-response,33
true,12,2,4,2,true,d,false,true,0.0-2.0-0.54-0.487-3.487,1,0,1,68,false,stim,false,2,1173.8700000005774,0,1,2,86523,WMM2,1296535,false,false,1584,image-keyboard-response,34
true,12,2,4,2,true,d,false,true,0.0-2.0-0.54-0.488-3.488,1,0,1,68,false,stim,false,2,335.6999999994878,0,0,1,86523,WMM2,1298399,false,false,1587,image-keyboard-response,35
true,12,0,4,0,true,q,false,true,0.0-2.0-0.54-0.489-3.489,1,0,1,81,false,stim,false,0,513.1399999998976,0,1,0,86523,WMM2,1300443,false,false,1590,image-keyboard-response,36
true,12,0,4,0,true,q,false,true,0.0-2.0-0.54-0.490-3.490,1,0,1,81,false,stim,false,0,372.24999999953434,0,1,0,86523,WMM2,1302337,false,false,1593,image-keyboard-response,37
true,12,0,4,0,true,q,false,true,0.0-2.0-0.54-0.491-3.491,1,0,1,81,false,stim,false,0,343.7650000003632,0,1,0,86523,WMM2,1304206,false,false,1596,image-keyboard-response,38
true,12,2,4,2,true,d,false,true,0.0-2.0-0.54-0.492-3.492,1,0,1,68,false,stim,false,2,460.3100000002887,0,1,2,86523,WMM2,1306207,false,false,1599,image-keyboard-response,39
true,12,2,4,2,true,d,false,true,0.0-2.0-0.54-0.493-3.493,1,0,1,68,false,stim,false,2,437.6199999998789,0,1,2,86523,WMM2,1308185,false,false,1602,image-keyboard-response,40
true,13,2,2,1,false,z,false,false,0.0-2.0-0.54-0.494-3.494,1,0,1,68,true,stim,true,2,682.0249999999069,0,0,1,86523,WMM2,1310395,false,false,1605,image-keyboard-response,1
true,13,2,2,2,true,d,false,true,0.0-2.0-0.55-0.495-3.495,1,0,1,68,false,stim,false,2,596.8950000007171,0,1,2,86523,WMM2,1312526,false,false,1608,image-keyboard-response,2
true,13,0,2,0,true,q,false,true,0.0-2.0-0.55-0.496-3.496,1,0,1,81,false,stim,false,0,562.1199999996461,0,1,0,86523,WMM2,1314625,false,false,1611,image-keyboard-response,3
true,13,0,2,0,true,q,false,true,0.0-2.0-0.55-0.497-3.497,1,0,1,81,false,stim,false,0,460.9399999999441,0,1,0,86523,WMM2,1316613,false,false,1614,image-keyboard-response,4
true,13,0,2,0,true,q,false,true,0.0-2.0-0.55-0.498-3.498,1,0,1,81,false,stim,false,0,373.79500000039116,0,1,0,86523,WMM2,1318520,false,false,1617,image-keyboard-response,5
true,13,1,2,2,false,d,true,false,0.0-2.0-0.55-0.499-3.499,1,0,1,90,false,stim,false,2,603.8950000002515,0,1,2,86523,WMM2,1320651,false,false,1620,image-keyboard-response,6
true,13,2,2,1,false,z,false,false,0.0-2.0-0.55-0.500-3.500,1,0,1,68,false,stim,true,2,344.804999999702,0,0,1,86523,WMM2,1322525,false,false,1623,image-keyboard-response,7
true,13,0,2,1,false,z,true,false,0.0-2.0-0.55-0.501-3.501,1,0,1,81,false,stim,false,2,390.9949999996461,0,0,1,86523,WMM2,1324455,false,false,1626,image-keyboard-response,8
true,13,1,2,2,false,d,true,false,0.0-2.0-0.55-0.502-3.502,1,0,1,90,false,stim,false,2,499.46999999973923,0,1,2,86523,WMM2,1326496,false,false,1629,image-keyboard-response,9
true,13,1,2,1,true,z,false,true,0.0-2.0-0.55-0.503-3.503,1,0,1,90,false,stim,false,2,410.3700000003446,0,0,1,86523,WMM2,1328440,false,false,1632,image-keyboard-response,10
true,13,1,2,1,true,z,false,false,0.0-2.0-0.56-0.504-3.504,1,0,1,90,false,stim,false,2,419.75499999988824,0,0,1,86523,WMM2,1330384,false,true,1635,image-keyboard-response,11
true,13,1,2,1,true,z,false,true,0.0-2.0-0.56-0.505-3.505,1,0,1,90,false,stim,false,2,359.65000000037253,0,0,1,86523,WMM2,1332272,false,false,1638,image-keyboard-response,12
true,13,0,2,0,true,q,false,true,0.0-2.0-0.56-0.506-3.506,1,0,1,81,false,stim,false,0,1558.7150000000838,0,1,0,86523,WMM2,1335374,false,false,1641,image-keyboard-response,13
true,13,1,2,2,false,d,true,false,0.0-2.0-0.56-0.507-3.507,1,0,1,90,false,stim,false,2,834.0849999994971,0,1,2,86523,WMM2,1337738,false,false,1644,image-keyboard-response,14
true,13,1,2,2,false,d,true,false,0.0-2.0-0.56-0.508-3.508,1,0,1,90,false,stim,false,2,1124.2599999997765,0,1,2,86523,WMM2,1340388,false,false,1647,image-keyboard-response,15
true,13,0,2,1,false,z,true,false,0.0-2.0-0.56-0.509-3.509,1,0,1,81,false,stim,false,2,593.7849999999162,0,0,1,86523,WMM2,1342509,false,false,1650,image-keyboard-response,16
true,13,0,2,0,true,q,false,true,0.0-2.0-0.56-0.510-3.510,1,0,1,81,false,stim,false,0,502.3299999991432,0,1,0,86523,WMM2,1344533,false,false,1653,image-keyboard-response,17
true,13,0,2,0,true,q,false,false,0.0-2.0-0.56-0.511-3.511,1,0,1,81,false,stim,false,0,1279.5500000002794,0,1,0,86523,WMM2,1347343,false,true,1656,image-keyboard-response,18
true,13,2,2,2,true,d,false,true,0.0-2.0-0.56-0.512-3.512,1,0,1,68,false,stim,false,2,422.7650000001304,0,1,2,86523,WMM2,1349302,false,false,1659,image-keyboard-response,19
true,13,1,2,1,true,z,false,true,0.0-2.0-0.57-0.513-3.513,1,0,1,90,false,stim,false,2,629.010000000475,0,0,1,86523,WMM2,1351451,false,false,1662,image-keyboard-response,20
true,13,0,2,0,true,q,false,true,0.0-2.0-0.57-0.514-3.514,1,0,1,81,false,stim,false,0,779.0249999999069,0,1,0,86523,WMM2,1353775,false,false,1665,image-keyboard-response,21
true,13,1,2,2,false,d,true,true,0.0-2.0-0.57-0.515-3.515,1,0,1,90,false,stim,false,2,713.5249999999069,0,1,2,86523,WMM2,1356027,false,true,1668,image-keyboard-response,22
true,13,1,2,2,false,d,true,true,0.0-2.0-0.57-0.516-3.516,1,0,1,90,false,stim,false,2,585.6149999999907,0,1,2,86523,WMM2,1358151,false,true,1671,image-keyboard-response,23
true,13,1,2,2,false,d,true,false,0.0-2.0-0.57-0.517-3.517,1,0,1,90,false,stim,false,2,374.23499999940395,0,1,2,86523,WMM2,1360058,false,false,1674,image-keyboard-response,24
true,13,0,2,0,true,q,false,true,0.0-2.0-0.57-0.518-3.518,1,0,1,81,false,stim,false,0,1139.7600000000093,0,1,0,86523,WMM2,1362738,false,false,1677,image-keyboard-response,25
true,13,1,2,1,true,z,false,true,0.0-2.0-0.57-0.519-3.519,1,0,1,90,false,stim,false,2,442.9250000002794,0,0,1,86523,WMM2,1364724,false,false,1680,image-keyboard-response,26
true,13,1,2,1,true,z,false,true,0.0-2.0-0.57-0.520-3.520,1,0,1,90,false,stim,false,2,284.92500000004657,0,0,1,86523,WMM2,1366550,false,false,1683,image-keyboard-response,27
true,13,0,2,0,true,q,false,false,0.0-2.0-0.57-0.521-3.521,1,0,1,81,false,stim,false,0,512.3349999994971,0,1,0,86523,WMM2,1368593,false,true,1686,image-keyboard-response,28
true,13,2,2,0,false,q,true,true,0.0-2.0-0.58-0.522-3.522,1,0,1,68,false,stim,false,0,791.3649999999907,0,1,0,86523,WMM2,1370922,false,true,1689,image-keyboard-response,29
true,13,1,2,2,false,d,true,false,0.0-2.0-0.58-0.523-3.523,1,0,1,90,false,stim,false,2,226.40499999956228,0,1,2,86523,WMM2,1372692,false,false,1692,image-keyboard-response,30
true,13,0,2,2,false,d,true,false,0.0-2.0-0.58-0.524-3.524,1,0,1,81,false,stim,false,2,333.92500000074506,0,1,2,86523,WMM2,1374566,false,false,1695,image-keyboard-response,31
true,13,1,2,0,false,q,true,false,0.0-2.0-0.58-0.525-3.525,1,0,1,90,false,stim,false,0,539.2800000000279,0,1,0,86523,WMM2,1376640,false,false,1698,image-keyboard-response,32
true,13,2,2,0,false,q,true,false,0.0-2.0-0.58-0.526-3.526,1,0,1,68,false,stim,false,0,303.5349999999162,0,1,0,86523,WMM2,1378510,false,false,1701,image-keyboard-response,33
true,13,1,2,1,true,z,false,true,0.0-2.0-0.58-0.527-3.527,1,0,1,90,false,stim,false,2,1229.8549999995157,0,0,1,86523,WMM2,1381277,false,false,1704,image-keyboard-response,34
true,13,0,2,2,false,d,true,false,0.0-2.0-0.58-0.528-3.528,1,0,1,81,false,stim,false,2,743.6199999994133,0,1,2,86523,WMM2,1383558,false,false,1707,image-keyboard-response,35
true,13,1,2,1,true,z,false,true,0.0-2.0-0.58-0.529-3.529,1,0,1,90,false,stim,false,2,841.4450000000652,0,0,1,86523,WMM2,1385940,false,false,1710,image-keyboard-response,36
true,13,1,2,1,true,z,false,true,0.0-2.0-0.58-0.530-3.530,1,0,1,90,false,stim,false,2,494.5150000003632,0,0,1,86523,WMM2,1387972,false,false,1713,image-keyboard-response,37
true,13,2,2,2,true,d,false,true,0.0-2.0-0.59-0.531-3.531,1,0,1,68,false,stim,false,2,391.17500000074506,0,1,2,86523,WMM2,1389906,false,false,1716,image-keyboard-response,38
true,13,2,2,1,false,z,false,true,0.0-2.0-0.59-0.532-3.532,1,0,1,68,false,stim,true,2,427.1349999997765,0,0,1,86523,WMM2,1391858,false,true,1719,image-keyboard-response,39
true,13,2,2,1,false,z,false,false,0.0-2.0-0.59-0.533-3.533,1,0,1,68,false,stim,true,2,452.89499999932013,0,0,1,86523,WMM2,1393852,false,false,1722,image-keyboard-response,40
true,13,2,2,2,true,d,false,false,0.0-2.0-0.59-0.534-3.534,1,0,1,68,false,stim,false,2,507.15000000037253,0,1,2,86523,WMM2,1395877,false,true,1725,image-keyboard-response,41
true,13,0,2,0,true,q,false,true,0.0-2.0-0.59-0.535-3.535,1,0,1,81,false,stim,false,0,714.1949999995995,0,1,0,86523,WMM2,1398131,false,false,1728,image-keyboard-response,42
true,13,0,2,0,true,q,false,false,0.0-2.0-0.59-0.536-3.536,1,0,1,81,false,stim,false,0,594.3450000004377,0,1,0,86523,WMM2,1400261,false,true,1731,image-keyboard-response,43
true,13,1,2,2,false,d,true,false,0.0-2.0-0.59-0.537-3.537,1,0,1,90,false,stim,false,2,881.0000000002328,0,1,2,86523,WMM2,1402680,false,false,1734,image-keyboard-response,44
true,13,0,2,0,true,q,false,false,0.0-2.0-0.59-0.538-3.538,1,0,1,81,false,stim,false,0,666.3649999999907,0,1,0,86523,WMM2,1404881,false,true,1737,image-keyboard-response,45
true,13,2,2,1,false,z,false,false,0.0-2.0-0.59-0.539-3.539,1,0,1,68,false,stim,true,2,348.2749999994412,0,0,1,86523,WMM2,1406764,false,false,1740,image-keyboard-response,46
true,13,1,2,1,true,z,false,true,0.0-2.0-0.60-0.540-3.540,1,0,1,90,false,stim,false,2,601.7299999995157,0,0,1,86523,WMM2,1408902,false,false,1743,image-keyboard-response,47
true,13,0,2,0,true,q,false,true,0.0-2.0-0.60-0.541-3.541,1,0,1,81,false,stim,false,0,693.0599999995902,0,1,0,86523,WMM2,1411126,false,false,1746,image-keyboard-response,48
true,13,0,2,0,true,q,false,true,0.0-2.0-0.60-0.542-3.542,1,0,1,81,false,stim,false,0,684.579999999376,0,1,0,86523,WMM2,1413351,false,false,1749,image-keyboard-response,49
true,13,1,2,2,false,d,true,true,0.0-2.0-0.60-0.543-3.543,1,0,1,90,false,stim,false,2,1268.619999999879,0,1,2,86523,WMM2,1416150,false,true,1752,image-keyboard-response,50
true,13,1,2,2,false,d,true,true,0.0-2.0-0.60-0.544-3.544,1,0,1,90,false,stim,false,2,339.7949999999255,0,0,2,86523,WMM2,1418023,false,true,1755,image-keyboard-response,51
true,13,1,2,2,false,d,true,false,0.0-2.0-0.60-0.545-3.545,1,0,1,90,false,stim,false,2,325.6899999997113,0,0,2,86523,WMM2,1419892,false,false,1758,image-keyboard-response,52
true,13,2,2,0,false,q,true,false,0.0-2.0-0.60-0.546-3.546,1,0,1,68,false,stim,false,0,617.4149999998044,0,1,0,86523,WMM2,1422034,false,false,1761,image-keyboard-response,53
true,13,2,2,1,false,z,false,false,0.0-2.0-0.60-0.547-3.547,1,0,1,68,false,stim,true,2,724.4600000004284,0,1,1,86523,WMM2,1424291,false,false,1764,image-keyboard-response,54
true,13,0,2,1,false,z,true,false,0.0-2.0-0.60-0.548-3.548,1,0,1,81,false,stim,false,2,1222.0649999999441,0,1,1,86523,WMM2,1427039,false,false,1767,image-keyboard-response,55
true,13,1,2,2,false,d,true,true,0.0-2.0-0.61-0.549-3.549,1,0,1,90,false,stim,false,2,672.410000000149,0,0,2,86523,WMM2,1429240,false,true,1770,image-keyboard-response,56
true,13,0,2,0,true,q,false,true,0.0-2.0-0.61-0.550-3.550,1,0,1,81,false,stim,false,0,1066.7599999997765,0,1,0,86523,WMM2,1431833,false,false,1773,image-keyboard-response,57
true,13,0,2,0,true,q,false,true,0.0-2.0-0.61-0.551-3.551,1,0,1,81,false,stim,false,0,536.4099999996834,0,1,0,86523,WMM2,1433903,false,false,1776,image-keyboard-response,58
true,13,2,2,1,false,z,false,false,0.0-2.0-0.61-0.552-3.552,1,0,1,68,false,stim,true,2,1067.0300000002608,0,1,1,86523,WMM2,1436500,false,false,1779,image-keyboard-response,59
true,13,0,2,0,true,q,false,true,0.0-2.0-0.61-0.553-3.553,1,0,1,81,false,stim,false,0,994.7099999999627,0,1,0,86523,WMM2,1439016,false,false,1782,image-keyboard-response,60
false,14,-1,0,2,false,d,true,false,0.0-2.0-0.61-0.554-3.554,1,1,0,,true,stim,false,2,,0,0,2,86523,WMM2,1565379,false,false,1905,image-keyboard-response,1
true,14,0,0,2,false,d,true,false,0.0-2.0-0.61-0.555-3.555,1,1,0,81,false,stim,false,2,749.1800000006333,0,0,2,86523,WMM2,1567654,false,false,1908,image-keyboard-response,2
true,14,1,0,1,true,z,false,true,0.0-2.0-0.61-0.556-3.556,1,1,0,90,false,stim,false,1,177.3749999993015,0,1,1,86523,WMM2,1569366,false,false,1911,image-keyboard-response,3
true,14,1,0,1,true,z,false,true,0.0-2.0-0.61-0.557-3.557,1,1,0,90,false,stim,false,1,351.4450000000652,0,1,1,86523,WMM2,1571256,false,false,1914,image-keyboard-response,4
true,14,1,0,2,false,d,true,false,0.0-2.0-0.62-0.558-3.558,1,1,0,90,false,stim,false,2,365.7450000010431,0,0,2,86523,WMM2,1573165,false,false,1917,image-keyboard-response,5
true,14,1,0,1,true,z,false,true,0.0-2.0-0.62-0.559-3.559,1,1,0,90,false,stim,false,1,454.2650000003632,0,1,1,86523,WMM2,1575144,false,false,1920,image-keyboard-response,6
true,14,2,0,2,true,d,false,true,0.0-2.0-0.62-0.560-3.560,1,1,0,68,false,stim,false,2,372.82000000053085,0,0,2,86523,WMM2,1577044,false,false,1923,image-keyboard-response,7
true,14,2,0,1,false,z,true,false,0.0-2.0-0.62-0.561-3.561,1,1,0,68,false,stim,false,1,725.0949999997392,0,1,1,86523,WMM2,1579298,false,false,1926,image-keyboard-response,8
true,14,0,0,0,true,q,false,true,0.0-2.0-0.62-0.562-3.562,1,1,0,81,false,stim,false,0,566.6400000008289,0,1,0,86523,WMM2,1581390,false,false,1929,image-keyboard-response,9
true,14,2,0,1,false,z,true,false,0.0-2.0-0.62-0.563-3.563,1,1,0,68,false,stim,false,1,827.2899999991059,0,1,1,86523,WMM2,1583745,false,false,1932,image-keyboard-response,10
true,14,0,0,0,true,q,false,true,0.0-2.0-0.62-0.564-3.564,1,1,0,81,false,stim,false,0,598.1199999987148,0,1,0,86523,WMM2,1585872,false,false,1935,image-keyboard-response,11
true,14,0,0,0,true,q,false,true,0.0-2.0-0.62-0.565-3.565,1,1,0,81,false,stim,false,0,479.29999999911524,0,1,0,86523,WMM2,1587869,false,false,1938,image-keyboard-response,12
true,14,1,0,2,false,d,true,false,0.0-2.0-0.62-0.566-3.566,1,1,0,90,false,stim,false,2,645.5299999997951,0,0,2,86523,WMM2,1590051,false,false,1941,image-keyboard-response,13
true,14,0,0,2,false,d,true,false,0.0-2.0-0.63-0.567-3.567,1,1,0,81,false,stim,false,2,353.04999999981374,0,0,2,86523,WMM2,1591943,false,false,1944,image-keyboard-response,14
true,14,0,0,0,true,q,false,true,0.0-2.0-0.63-0.568-3.568,1,1,0,81,false,stim,false,0,626.1300000005867,0,1,0,86523,WMM2,1594100,false,false,1947,image-keyboard-response,15
true,14,1,0,2,false,d,true,false,0.0-2.0-0.63-0.569-3.569,1,1,0,90,false,stim,false,2,590.1700000013225,0,0,2,86523,WMM2,1596228,false,false,1950,image-keyboard-response,16
true,14,2,0,1,false,z,true,false,0.0-2.0-0.63-0.570-3.570,1,1,0,68,false,stim,false,1,688.3199999993667,0,1,1,86523,WMM2,1598445,false,false,1953,image-keyboard-response,17
true,14,0,0,0,true,q,false,true,0.0-2.0-0.63-0.571-3.571,1,1,0,81,false,stim,false,0,599.6900000008754,0,1,0,86523,WMM2,1600573,false,false,1956,image-keyboard-response,18
true,14,0,0,0,true,q,false,true,0.0-2.0-0.63-0.572-3.572,1,1,0,81,false,stim,false,0,451.8900000003632,0,1,0,86523,WMM2,1602558,false,false,1959,image-keyboard-response,19
true,14,2,0,1,false,z,true,false,0.0-2.0-0.63-0.573-3.573,1,1,0,68,false,stim,false,1,904.5900000000838,0,1,1,86523,WMM2,1604994,false,false,1962,image-keyboard-response,20
true,14,1,0,2,false,d,true,true,0.0-2.0-0.63-0.574-3.574,1,1,0,90,false,stim,false,2,617.1499999999069,0,0,2,86523,WMM2,1607145,false,true,1965,image-keyboard-response,21
true,14,2,0,1,false,z,true,false,0.0-2.0-0.63-0.575-3.575,1,1,0,68,false,stim,false,1,727.5950000002049,0,1,1,86523,WMM2,1609418,false,false,1968,image-keyboard-response,22
true,14,1,0,2,false,d,true,true,0.0-2.0-0.64-0.576-3.576,1,1,0,90,false,stim,false,2,549.845000001369,0,0,2,86523,WMM2,1611507,false,true,1971,image-keyboard-response,23
true,14,0,0,2,false,d,true,false,0.0-2.0-0.64-0.577-3.577,1,1,0,81,false,stim,false,2,759.5749999999534,0,0,2,86523,WMM2,1613800,false,false,1974,image-keyboard-response,24
true,14,0,0,1,false,z,true,false,0.0-2.0-0.64-0.578-3.578,1,1,0,81,false,stim,false,1,973.2399999992922,0,1,1,86523,WMM2,1616314,false,false,1977,image-keyboard-response,25
true,14,0,0,0,true,q,false,true,0.0-2.0-0.64-0.579-3.579,1,1,0,81,false,stim,false,0,566.6750000000466,0,1,0,86523,WMM2,1618425,false,false,1980,image-keyboard-response,26
true,14,0,0,0,true,q,false,true,0.0-2.0-0.64-0.580-3.580,1,1,0,81,false,stim,false,0,446.8699999998789,0,1,0,86523,WMM2,1620405,false,false,1983,image-keyboard-response,27
true,14,0,0,0,true,q,false,true,0.0-2.0-0.64-0.581-3.581,1,1,0,81,false,stim,false,0,586.0199999988545,0,1,0,86523,WMM2,1622527,false,false,1986,image-keyboard-response,28
true,14,1,0,2,false,d,true,false,0.0-2.0-0.64-0.582-3.582,1,1,0,90,false,stim,false,2,685.0699999995995,0,0,2,86523,WMM2,1624744,false,false,1989,image-keyboard-response,29
true,14,1,0,1,true,z,false,true,0.0-2.0-0.64-0.583-3.583,1,1,0,90,false,stim,false,1,1547.7299999983516,0,1,1,86523,WMM2,1627823,false,false,1992,image-keyboard-response,30
true,14,1,0,1,true,z,false,true,0.0-2.0-0.64-0.584-3.584,1,1,0,90,false,stim,false,1,501.6400000003632,0,1,1,86523,WMM2,1629866,false,false,1995,image-keyboard-response,31
true,14,0,0,0,true,q,false,false,0.0-2.0-0.65-0.585-3.585,1,1,0,81,false,stim,false,0,479.07499999925494,0,1,0,86523,WMM2,1631886,false,true,1998,image-keyboard-response,32
true,14,2,0,2,true,d,false,true,0.0-2.0-0.65-0.586-3.586,1,1,0,68,false,stim,false,2,704.4499999992549,0,0,2,86523,WMM2,1634150,false,false,2001,image-keyboard-response,33
