answered,blockNum,choice,condition,corResp,correct,correct_response,explo,fb,internal_node_id,isStable_1,isStable_2,isStable_3,key_press,newBlock,part,persev,persevResp,rt,sessNum,stableAS,stimulus,subject,task,time_elapsed,training,trap,trial_index,trial_type,trialsInBlock
true,1,1,0,0,false,q,true,false,0.0-2.0-0.0-0.0-3.0,0,0,0,90,true,stim,false,-1,827,2,0,2,87003,WMM1,116216,false,false,100,image-keyboard-response,1
true,1,0,0,2,false,d,true,false,0.0-2.0-0.0-0.1-3.1,0,0,0,81,false,stim,false,-1,435,2,0,1,87003,WMM1,118205,false,false,103,image-keyboard-response,2
true,1,1,0,2,false,d,true,true,0.0-2.0-0.0-0.2-3.2,0,0,0,90,false,stim,false,-1,522,2,0,0,87003,WMM1,120270,false,true,106,image-keyboard-response,3
true,1,1,0,2,false,d,true,false,0.0-2.0-0.0-0.3-3.3,0,0,0,90,false,stim,false,-1,839,2,0,0,87003,WMM1,122647,false,false,109,image-keyboard-response,4
true,1,1,0,2,false,d,true,true,0.0-2.0-0.0-0.4-3.4,0,0,0,90,false,stim,false,-1,582,2,0,0,87003,WMM1,124771,false,true,112,image-keyboard-response,5
true,1,2,0,0,false,q,true,false,0.0-2.0-0.0-0.5-3.5,0,0,0,68,false,stim,false,-1,503,2,0,2,87003,WMM1,126800,false,false,115,image-keyboard-response,6
true,1,1,0,2,false,d,true,false,0.0-2.0-0.0-0.6-3.6,0,0,0,90,false,stim,false,-1,686,2,0,1,87003,WMM1,129025,false,false,118,image-keyboard-response,7
true,1,2,0,0,false,q,true,false,0.0-2.0-0.0-0.7-3.7,0,0,0,68,false,stim,false,-1,832,2,0,2,87003,WMM1,131390,false,false,121,image-keyboard-response,8
true,1,1,0,2,false,d,true,false,0.0-2.0-0.0-0.8-3.8,0,0,0,90,false,stim,false,-1,1521,2,0,1,87003,WMM1,134438,false,false,124,image-keyboard-response,9
true,1,2,0,2,true,d,false,true,0.0-2.0-0.1-0.9-3.9,0,0,0,68,false,stim,false,-1,459,2,0,1,87003,WMM1,136442,false,false,127,image-keyboard-response,10
true,1,0,0,0,true,q,false,true,0.0-2.0-0.1-0.10-3.10,0,0,0,81,false,stim,false,-1,838,2,0,2,87003,WMM1,138808,false,false,130,image-keyboard-response,11
true,1,1,0,2,false,d,true,false,0.0-2.0-0.1-0.11-3.11,0,0,0,90,false,stim,false,-1,390,2,0,0,87003,WMM1,140738,false,false,133,image-keyboard-response,12
true,1,2,0,2,true,d,false,true,0.0-2.0-0.1-0.12-3.12,0,0,0,68,false,stim,false,-1,518,2,0,1,87003,WMM1,142786,false,false,136,image-keyboard-response,13
true,1,0,0,2,false,d,true,false,0.0-2.0-0.1-0.13-3.13,0,0,0,81,false,stim,false,-1,980,2,0,0,87003,WMM1,145298,false,false,139,image-keyboard-response,14
true,1,0,0,0,true,q,false,false,0.0-2.0-0.1-0.14-3.14,0,0,0,81,false,stim,false,-1,594,2,0,2,87003,WMM1,147431,false,true,142,image-keyboard-response,15
true,1,1,0,2,false,d,true,false,0.0-2.0-0.1-0.15-3.15,0,0,0,90,false,stim,false,-1,469,2,0,0,87003,WMM1,149427,false,false,145,image-keyboard-response,16
true,1,2,0,2,true,d,false,true,0.0-2.0-0.1-0.16-3.16,0,0,0,68,false,stim,false,-1,591,2,0,1,87003,WMM1,151549,false,false,148,image-keyboard-response,17
true,1,1,0,0,false,q,true,false,0.0-2.0-0.1-0.17-3.17,0,0,0,90,false,stim,false,-1,1218,2,0,2,87003,WMM1,154298,false,false,151,image-keyboard-response,18
true,1,2,0,2,true,d,false,true,0.0-2.0-0.2-0.18-3.18,0,0,0,68,false,stim,false,-1,432,2,0,1,87003,WMM1,156260,false,false,154,image-keyboard-response,19
true,1,2,0,2,true,d,false,true,0.0-2.0-0.2-0.19-3.19,0,0,0,68,false,stim,false,-1,354,2,0,0,87003,WMM1,158142,false,false,157,image-keyboard-response,20
true,1,2,0,0,false,q,true,false,0.0-2.0-0.2-0.20-3.20,0,0,0,68,false,stim,false,-1,487,2,0,2,87003,WMM1,160165,false,false,160,image-keyboard-response,21
true,1,0,0,0,true,q,false,true,0.0-2.0-0.2-0.21-3.21,0,0,0,81,false,stim,false,-1,859,2,0,2,87003,WMM1,162556,false,false,163,image-keyboard-response,22
true,1,2,0,2,true,d,false,true,0.0-2.0-0.2-0.22-3.22,0,0,0,68,false,stim,false,-1,563,2,0,0,87003,WMM1,164660,false,false,166,image-keyboard-response,23
true,1,2,0,2,true,d,false,true,0.0-2.0-0.2-0.23-3.23,0,0,0,68,false,stim,false,-1,373,2,0,0,87003,WMM1,166571,false,false,169,image-keyboard-response,24
true,1,2,0,2,true,d,false,true,0.0-2.0-0.2-0.24-3.24,0,0,0,68,false,stim,false,-1,449,2,0,1,87003,WMM1,168548,false,false,172,image-keyboard-response,25
true,1,0,0,0,true,q,false,true,0.0-2.0-0.2-0.25-3.25,0,0,0,81,false,stim,false,-1,589,2,0,2,87003,WMM1,170667,false,false,175,image-keyboard-response,26
true,1,2,0,2,true,d,false,false,0.0-2.0-0.2-0.26-3.26,0,0,0,68,false,stim,false,-1,540,2,0,1,87003,WMM1,172739,false,true,178,image-keyboard-response,27
true,1,0,0,0,true,q,false,true,0.0-2.0-0.3-0.27-3.27,0,0,0,81,false,stim,false,-1,491,2,0,2,87003,WMM1,174769,false,false,181,image-keyboard-response,28
true,1,2,0,0,false,q,true,false,0.0-2.0-0.3-0.28-3.28,0,0,0,68,false,stim,false,-1,383,2,0,2,87003,WMM1,176681,false,false,184,image-keyboard-response,29
true,1,0,0,0,true,q,false,true,0.0-2.0-0.3-0.29-3.29,0,0,0,81,false,stim,false,-1,432,2,0,2,87003,WMM1,178650,false,false,187,image-keyboard-response,30
true,1,2,0,2,true,d,false,true,0.0-2.0-0.3-0.30-3.30,0,0,0,68,false,stim,false,-1,484,2,0,1,87003,WMM1,180663,false,false,190,image-keyboard-response,31
true,1,2,0,2,true,d,false,true,0.0-2.0-0.3-0.31-3.31,0,0,0,68,false,stim,false,-1,591,2,0,1,87003,WMM1,182787,false,false,193,image-keyboard-response,32
true,1,2,0,2,true,d,false,true,0.0-2.0-0.3-0.32-3.32,0,0,0,68,false,stim,false,-1,452,2,0,1,87003,WMM1,184768,false,false,196,image-keyboard-response,33
true,1,2,0,2,true,d,false,true,0.0-2.0-0.3-0.33-3.33,0,0,0,68,false,stim,false,-1,387,2,0,0,87003,WMM1,186684,false,false,199,image-keyboard-response,34
true,1,2,0,2,true,d,false,true,0.0-2.0-0.3-0.34-3.34,0,0,0,68,false,stim,false,-1,494,2,0,0,87003,WMM1,188712,false,false,202,image-keyboard-response,35
true,1,2,0,2,true,d,false,true,0.0-2.0-0.3-0.35-3.35,0,0,0,68,false,stim,false,-1,380,2,0,0,87003,WMM1,190621,false,false,205,image-keyboard-response,36
true,2,2,1,1,false,z,false,false,0.0-2.0-0.4-0.36-3.36,0,0,0,68,true,stim,true,2,445,2,0,0,87003,WMM1,192601,false,false,208,image-keyboard-response,1
true,2,2,1,1,false,z,false,false,0.0-2.0-0.4-0.37-3.37,0,0,0,68,false,stim,true,2,427,2,0,1,87003,WMM1,194567,false,false,211,image-keyboard-response,2
true,2,2,1,1,false,z,false,true,0.0-2.0-0.4-0.38-3.38,0,0,0,68,false,stim,true,2,347,2,0,1,87003,WMM1,196443,false,true,214,image-keyboard-response,3
true,2,2,1,1,false,z,false,false,0.0-2.0-0.4-0.39-3.39,0,0,0,68,false,stim,true,2,346,2,0,0,87003,WMM1,198322,false,false,217,image-keyboard-response,4
true,2,2,1,2,true,d,false,true,0.0-2.0-0.4-0.40-3.40,0,0,0,68,false,stim,false,0,427,2,0,2,87003,WMM1,200285,false,false,220,image-keyboard-response,5
true,2,2,1,2,true,d,false,true,0.0-2.0-0.4-0.41-3.41,0,0,0,68,false,stim,false,0,506,2,0,2,87003,WMM1,202334,false,false,223,image-keyboard-response,6
true,2,0,1,1,false,z,true,false,0.0-2.0-0.4-0.42-3.42,0,0,0,81,false,stim,false,2,800,2,0,0,87003,WMM1,204668,false,false,226,image-keyboard-response,7
true,2,2,1,1,false,z,false,false,0.0-2.0-0.4-0.43-3.43,0,0,0,68,false,stim,true,2,486,2,0,1,87003,WMM1,206695,false,false,229,image-keyboard-response,8
true,2,2,1,2,true,d,false,true,0.0-2.0-0.4-0.44-3.44,0,0,0,68,false,stim,false,0,536,2,0,2,87003,WMM1,208762,false,false,232,image-keyboard-response,9
true,2,1,1,1,true,z,false,true,0.0-2.0-0.5-0.45-3.45,0,0,0,90,false,stim,false,2,480,2,0,1,87003,WMM1,210768,false,false,235,image-keyboard-response,10
true,2,0,1,1,false,z,true,false,0.0-2.0-0.5-0.46-3.46,0,0,0,81,false,stim,false,2,1292,2,0,0,87003,WMM1,213599,false,false,238,image-keyboard-response,11
true,2,2,1,2,true,d,false,true,0.0-2.0-0.5-0.47-3.47,0,0,0,68,false,stim,false,0,564,2,0,2,87003,WMM1,215691,false,false,241,image-keyboard-response,12
true,2,1,1,1,true,z,false,true,0.0-2.0-0.5-0.48-3.48,0,0,0,90,false,stim,false,2,443,2,0,1,87003,WMM1,217669,false,false,244,image-keyboard-response,13
true,2,1,1,1,true,z,false,true,0.0-2.0-0.5-0.49-3.49,0,0,0,90,false,stim,false,2,347,2,0,0,87003,WMM1,219548,false,false,247,image-keyboard-response,14
true,2,2,1,2,true,d,false,true,0.0-2.0-0.5-0.50-3.50,0,0,0,68,false,stim,false,0,819,2,0,2,87003,WMM1,221898,false,false,250,image-keyboard-response,15
true,2,1,1,1,true,z,false,true,0.0-2.0-0.5-0.51-3.51,0,0,0,90,false,stim,false,2,463,2,0,1,87003,WMM1,223900,false,false,253,image-keyboard-response,16
true,2,1,1,1,true,z,false,true,0.0-2.0-0.5-0.52-3.52,0,0,0,90,false,stim,false,2,462,2,0,0,87003,WMM1,225901,false,false,256,image-keyboard-response,17
true,2,2,1,2,true,d,false,false,0.0-2.0-0.5-0.53-3.53,0,0,0,68,false,stim,false,0,410,2,0,2,87003,WMM1,227837,false,true,259,image-keyboard-response,18
true,2,1,1,1,true,z,false,true,0.0-2.0-0.6-0.54-3.54,0,0,0,90,false,stim,false,2,948,2,0,0,87003,WMM1,230324,false,false,262,image-keyboard-response,19
true,2,1,1,1,true,z,false,true,0.0-2.0-0.6-0.55-3.55,0,0,0,90,false,stim,false,2,365,2,0,1,87003,WMM1,232223,false,false,265,image-keyboard-response,20
true,2,2,1,2,true,d,false,true,0.0-2.0-0.6-0.56-3.56,0,0,0,68,false,stim,false,0,833,2,1,2,87003,WMM1,234582,false,false,268,image-keyboard-response,21
true,2,2,1,2,true,d,false,true,0.0-2.0-0.6-0.57-3.57,0,0,0,68,false,stim,false,0,500,2,1,2,87003,WMM1,236609,false,false,271,image-keyboard-response,22
true,2,2,1,2,true,d,false,true,0.0-2.0-0.6-0.58-3.58,0,0,0,68,false,stim,false,0,621,2,1,2,87003,WMM1,238769,false,false,274,image-keyboard-response,23
true,2,1,1,1,true,z,false,true,0.0-2.0-0.6-0.59-3.59,0,0,0,90,false,stim,false,2,680,2,0,0,87003,WMM1,240988,false,false,277,image-keyboard-response,24
true,2,1,1,1,true,z,false,true,0.0-2.0-0.6-0.60-3.60,0,0,0,90,false,stim,false,2,582,2,0,1,87003,WMM1,243101,false,false,280,image-keyboard-response,25
true,2,1,1,1,true,z,false,true,0.0-2.0-0.6-0.61-3.61,0,0,0,90,false,stim,false,2,565,2,0,0,87003,WMM1,245204,false,false,283,image-keyboard-response,26
true,2,1,1,1,true,z,false,true,0.0-2.0-0.6-0.62-3.62,0,0,0,90,false,stim,false,2,444,2,0,1,87003,WMM1,247182,false,false,286,image-keyboard-response,27
true,2,2,1,2,true,d,false,true,0.0-2.0-0.7-0.63-3.63,0,0,0,68,false,stim,false,0,555,2,1,2,87003,WMM1,249273,false,false,289,image-keyboard-response,28
true,2,1,1,1,true,z,false,true,0.0-2.0-0.7-0.64-3.64,0,0,0,90,false,stim,false,2,565,2,0,0,87003,WMM1,251363,false,false,292,image-keyboard-response,29
true,2,2,1,2,true,d,false,true,0.0-2.0-0.7-0.65-3.65,0,0,0,68,false,stim,false,0,572,2,1,2,87003,WMM1,253470,false,false,295,image-keyboard-response,30
true,3,1,3,0,false,q,false,false,0.0-2.0-0.7-0.66-3.66,0,0,1,90,true,stim,true,1,389,2,0,0,87003,WMM1,255389,false,false,298,image-keyboard-response,1
true,3,0,3,0,true,q,false,true,0.0-2.0-0.7-0.67-3.67,0,0,1,81,false,stim,false,1,821,2,0,0,87003,WMM1,257747,false,false,301,image-keyboard-response,2
true,3,2,3,2,true,d,false,true,0.0-2.0-0.7-0.68-3.68,0,0,1,68,false,stim,false,1,671,2,0,1,87003,WMM1,259950,false,false,304,image-keyboard-response,3
true,3,2,3,2,true,d,false,true,0.0-2.0-0.7-0.69-3.69,0,0,1,68,false,stim,false,1,437,2,0,1,87003,WMM1,261925,false,false,307,image-keyboard-response,4
true,3,2,3,2,true,d,false,true,0.0-2.0-0.7-0.70-3.70,0,0,1,68,false,stim,false,1,452,2,0,1,87003,WMM1,263900,false,false,310,image-keyboard-response,5
true,3,1,3,2,false,d,true,true,0.0-2.0-0.7-0.71-3.71,0,0,1,90,false,stim,false,2,501,2,1,2,87003,WMM1,265940,false,true,313,image-keyboard-response,6
true,3,1,3,0,false,q,false,false,0.0-2.0-0.8-0.72-3.72,0,0,1,90,false,stim,true,1,314,2,0,0,87003,WMM1,267792,false,false,316,image-keyboard-response,7
true,3,2,3,2,true,d,false,false,0.0-2.0-0.8-0.73-3.73,0,0,1,68,false,stim,false,1,563,2,0,1,87003,WMM1,269883,false,true,319,image-keyboard-response,8
true,3,2,3,2,true,d,false,true,0.0-2.0-0.8-0.74-3.74,0,0,1,68,false,stim,false,1,389,2,0,1,87003,WMM1,271808,false,false,322,image-keyboard-response,9
true,3,1,3,2,false,d,true,true,0.0-2.0-0.8-0.75-3.75,0,0,1,90,false,stim,false,2,689,2,1,2,87003,WMM1,274017,false,true,325,image-keyboard-response,10
true,3,2,3,0,false,q,true,false,0.0-2.0-0.8-0.76-3.76,0,0,1,68,false,stim,false,1,395,2,0,0,87003,WMM1,275945,false,false,328,image-keyboard-response,11
true,3,1,3,2,false,d,true,true,0.0-2.0-0.8-0.77-3.77,0,0,1,90,false,stim,false,2,1471,2,1,2,87003,WMM1,278948,false,true,331,image-keyboard-response,12
true,3,2,3,2,true,d,false,false,0.0-2.0-0.8-0.78-3.78,0,0,1,68,false,stim,false,1,758,2,0,1,87003,WMM1,281237,false,true,334,image-keyboard-response,13
true,3,0,3,0,true,q,false,false,0.0-2.0-0.8-0.79-3.79,0,0,1,81,false,stim,false,1,421,2,0,0,87003,WMM1,283199,false,true,337,image-keyboard-response,14
true,3,1,3,2,false,d,true,true,0.0-2.0-0.8-0.80-3.80,0,0,1,90,false,stim,false,2,423,2,1,2,87003,WMM1,285158,false,true,340,image-keyboard-response,15
true,3,1,3,0,false,q,false,false,0.0-2.0-0.9-0.81-3.81,0,0,1,90,false,stim,true,1,351,2,0,0,87003,WMM1,287030,false,false,343,image-keyboard-response,16
true,3,1,3,2,false,d,true,false,0.0-2.0-0.9-0.82-3.82,0,0,1,90,false,stim,false,2,758,2,1,2,87003,WMM1,289317,false,false,346,image-keyboard-response,17
true,3,2,3,2,true,d,false,false,0.0-2.0-0.9-0.83-3.83,0,0,1,68,false,stim,false,1,425,2,0,1,87003,WMM1,291273,false,true,349,image-keyboard-response,18
true,3,2,3,0,false,q,true,false,0.0-2.0-0.9-0.84-3.84,0,0,1,68,false,stim,false,1,729,2,0,0,87003,WMM1,293540,false,false,352,image-keyboard-response,19
true,3,0,3,2,false,d,true,false,0.0-2.0-0.9-0.85-3.85,0,0,1,81,false,stim,false,2,1230,2,1,2,87003,WMM1,296299,false,false,355,image-keyboard-response,20
true,3,1,3,2,false,d,true,false,0.0-2.0-0.9-0.86-3.86,0,0,1,90,false,stim,false,2,378,2,1,2,87003,WMM1,298208,false,false,358,image-keyboard-response,21
true,3,0,3,0,true,q,false,false,0.0-2.0-0.9-0.87-3.87,0,0,1,81,false,stim,false,1,977,2,0,0,87003,WMM1,300725,false,true,361,image-keyboard-response,22
true,3,2,3,2,true,d,false,false,0.0-2.0-0.9-0.88-3.88,0,0,1,68,false,stim,false,1,491,2,0,1,87003,WMM1,302760,false,true,364,image-keyboard-response,23
true,3,1,3,2,false,d,false,false,0.0-2.0-0.9-0.89-3.89,0,0,1,90,false,stim,true,1,1185,2,0,1,87003,WMM1,305473,false,false,367,image-keyboard-response,24
true,3,1,3,2,false,d,true,false,0.0-2.0-0.10-0.90-3.90,0,0,1,90,false,stim,false,2,1203,2,1,2,87003,WMM1,308223,false,false,370,image-keyboard-response,25
true,3,0,3,2,false,d,true,false,0.0-2.0-0.10-0.91-3.91,0,0,1,81,false,stim,false,1,420,2,0,1,87003,WMM1,310177,false,false,373,image-keyboard-response,26
true,3,2,3,0,false,q,true,false,0.0-2.0-0.10-0.92-3.92,0,0,1,68,false,stim,false,1,770,2,0,0,87003,WMM1,312488,false,false,376,image-keyboard-response,27
true,3,0,3,2,false,d,true,false,0.0-2.0-0.10-0.93-3.93,0,0,1,81,false,stim,false,2,1478,2,1,2,87003,WMM1,315496,false,false,379,image-keyboard-response,28
true,3,1,3,2,false,d,true,false,0.0-2.0-0.10-0.94-3.94,0,0,1,90,false,stim,false,2,1876,2,1,2,87003,WMM1,318915,false,false,382,image-keyboard-response,29
true,3,0,3,0,true,q,false,false,0.0-2.0-0.10-0.95-3.95,0,0,1,81,false,stim,false,1,847,2,0,0,87003,WMM1,321296,false,true,385,image-keyboard-response,30
true,3,1,3,2,false,d,false,true,0.0-2.0-0.10-0.96-3.96,0,0,1,90,false,stim,true,1,847,2,0,1,87003,WMM1,323675,false,true,388,image-keyboard-response,31
true,3,1,3,0,false,q,false,false,0.0-2.0-0.10-0.97-3.97,0,0,1,90,false,stim,true,1,1237,2,0,0,87003,WMM1,326446,false,false,391,image-keyboard-response,32
true,3,1,3,2,false,d,false,true,0.0-2.0-0.10-0.98-3.98,0,0,1,90,false,stim,true,1,699,2,0,1,87003,WMM1,328689,false,true,394,image-keyboard-response,33
true,3,2,3,2,true,d,false,true,0.0-2.0-0.11-0.99-3.99,0,0,1,68,false,stim,false,2,726,2,1,2,87003,WMM1,330954,false,false,397,image-keyboard-response,34
true,3,1,3,2,false,d,false,false,0.0-2.0-0.11-0.100-3.100,0,0,1,90,false,stim,true,1,669,2,0,1,87003,WMM1,333158,false,false,400,image-keyboard-response,35
true,3,1,3,2,false,d,false,false,0.0-2.0-0.11-0.101-3.101,0,0,1,90,false,stim,true,1,711,2,0,1,87003,WMM1,335419,false,false,403,image-keyboard-response,36
true,3,0,3,0,true,q,false,true,0.0-2.0-0.11-0.102-3.102,0,0,1,81,false,stim,false,1,1154,2,0,0,87003,WMM1,338103,false,false,406,image-keyboard-response,37
true,3,0,3,0,true,q,false,true,0.0-2.0-0.11-0.103-3.103,0,0,1,81,false,stim,false,1,511,2,0,0,87003,WMM1,340139,false,false,409,image-keyboard-response,38
true,3,0,3,2,false,d,true,false,0.0-2.0-0.11-0.104-3.104,0,0,1,81,false,stim,false,1,1026,2,0,1,87003,WMM1,342695,false,false,412,image-keyboard-response,39
true,3,0,3,0,true,q,false,true,0.0-2.0-0.11-0.105-3.105,0,0,1,81,false,stim,false,1,831,2,0,0,87003,WMM1,345070,false,false,415,image-keyboard-response,40
true,3,2,3,2,true,d,false,true,0.0-2.0-0.11-0.106-3.106,0,0,1,68,false,stim,false,2,628,2,1,2,87003,WMM1,347227,false,false,418,image-keyboard-response,41
true,3,2,3,2,true,d,false,true,0.0-2.0-0.11-0.107-3.107,0,0,1,68,false,stim,false,2,701,2,1,2,87003,WMM1,349471,false,false,421,image-keyboard-response,42
true,3,0,3,0,true,q,false,true,0.0-2.0-0.12-0.108-3.108,0,0,1,81,false,stim,false,1,590,2,0,0,87003,WMM1,351600,false,false,424,image-keyboard-response,43
true,3,2,3,2,true,d,false,true,0.0-2.0-0.12-0.109-3.109,0,0,1,68,false,stim,false,1,525,2,0,1,87003,WMM1,353663,false,false,427,image-keyboard-response,44
true,3,2,3,2,true,d,false,true,0.0-2.0-0.12-0.110-3.110,0,0,1,68,false,stim,false,1,414,2,0,1,87003,WMM1,355613,false,false,430,image-keyboard-response,45
true,3,0,3,0,true,q,false,true,0.0-2.0-0.12-0.111-3.111,0,0,1,81,false,stim,false,1,404,2,0,0,87003,WMM1,357564,false,false,433,image-keyboard-response,46
true,3,2,3,2,true,d,false,true,0.0-2.0-0.12-0.112-3.112,0,0,1,68,false,stim,false,2,366,2,0,2,87003,WMM1,359465,false,false,436,image-keyboard-response,47
true,3,2,3,2,true,d,false,true,0.0-2.0-0.12-0.113-3.113,0,0,1,68,false,stim,false,1,234,2,0,1,87003,WMM1,361228,false,false,439,image-keyboard-response,48
true,3,0,3,0,true,q,false,true,0.0-2.0-0.12-0.114-3.114,0,0,1,81,false,stim,false,1,405,2,0,0,87003,WMM1,363164,false,false,442,image-keyboard-response,49
true,3,2,3,2,true,d,false,true,0.0-2.0-0.12-0.115-3.115,0,0,1,68,false,stim,false,2,548,2,0,2,87003,WMM1,365249,false,false,445,image-keyboard-response,50
true,3,2,3,2,true,d,false,true,0.0-2.0-0.12-0.116-3.116,0,0,1,68,false,stim,false,2,377,2,0,2,87003,WMM1,367155,false,false,448,image-keyboard-response,51
true,3,0,3,0,true,q,false,true,0.0-2.0-0.13-0.117-3.117,0,0,1,81,false,stim,false,1,416,2,0,0,87003,WMM1,369096,false,false,451,image-keyboard-response,52
true,3,0,3,0,true,q,false,false,0.0-2.0-0.13-0.118-3.118,0,0,1,81,false,stim,false,1,510,2,0,0,87003,WMM1,371148,false,true,454,image-keyboard-response,53
true,3,0,3,0,true,q,false,false,0.0-2.0-0.13-0.119-3.119,0,0,1,81,false,stim,false,1,709,2,0,0,87003,WMM1,373388,false,true,457,image-keyboard-response,54
true,3,2,3,2,true,d,false,true,0.0-2.0-0.13-0.120-3.120,0,0,1,68,false,stim,false,1,809,2,0,1,87003,WMM1,375728,false,false,460,image-keyboard-response,55
true,4,2,1,1,false,z,false,false,0.0-2.0-0.13-0.121-3.121,0,0,0,68,true,stim,true,2,623,2,0,1,87003,WMM1,377881,false,false,463,image-keyboard-response,1
true,4,2,1,0,false,q,false,false,0.0-2.0-0.13-0.122-3.122,0,0,0,68,false,stim,true,2,681,2,0,2,87003,WMM1,380101,false,false,466,image-keyboard-response,2
true,4,2,1,0,false,q,false,false,0.0-2.0-0.13-0.123-3.123,0,0,0,68,false,stim,true,2,1210,2,0,2,87003,WMM1,382849,false,false,469,image-keyboard-response,3
true,4,2,1,1,false,z,false,false,0.0-2.0-0.13-0.124-3.124,0,0,0,68,false,stim,true,2,524,2,0,1,87003,WMM1,384903,false,false,472,image-keyboard-response,4
true,4,1,1,0,false,q,true,false,0.0-2.0-0.13-0.125-3.125,0,0,0,90,false,stim,false,2,878,2,0,2,87003,WMM1,387316,false,false,475,image-keyboard-response,5
true,4,2,1,0,false,q,false,false,0.0-2.0-0.14-0.126-3.126,0,0,0,68,false,stim,true,2,732,2,0,2,87003,WMM1,389590,false,false,478,image-keyboard-response,6
true,4,0,1,1,false,z,false,false,0.0-2.0-0.14-0.127-3.127,0,0,0,81,false,stim,true,0,922,2,0,0,87003,WMM1,392022,false,false,481,image-keyboard-response,7
true,4,2,1,1,false,z,true,false,0.0-2.0-0.14-0.128-3.128,0,0,0,68,false,stim,false,0,844,2,0,0,87003,WMM1,394393,false,false,484,image-keyboard-response,8
true,4,1,1,1,true,z,false,true,0.0-2.0-0.14-0.129-3.129,0,0,0,90,false,stim,false,2,1936,2,0,1,87003,WMM1,397865,false,false,487,image-keyboard-response,9
true,4,1,1,0,false,q,true,false,0.0-2.0-0.14-0.130-3.130,0,0,0,90,false,stim,false,2,743,2,0,2,87003,WMM1,400123,false,false,490,image-keyboard-response,10
true,4,1,1,1,true,z,false,true,0.0-2.0-0.14-0.131-3.131,0,0,0,90,false,stim,false,0,863,2,0,0,87003,WMM1,402523,false,false,493,image-keyboard-response,11
true,4,1,1,1,true,z,false,true,0.0-2.0-0.14-0.132-3.132,0,0,0,90,false,stim,false,2,813,2,0,1,87003,WMM1,404863,false,false,496,image-keyboard-response,12
true,4,0,1,0,true,q,false,true,0.0-2.0-0.14-0.133-3.133,0,0,0,81,false,stim,false,2,763,2,0,2,87003,WMM1,407152,false,false,499,image-keyboard-response,13
true,4,1,1,1,true,z,false,true,0.0-2.0-0.14-0.134-3.134,0,0,0,90,false,stim,false,2,529,2,0,1,87003,WMM1,409218,false,false,502,image-keyboard-response,14
true,4,1,1,1,true,z,false,true,0.0-2.0-0.15-0.135-3.135,0,0,0,90,false,stim,false,2,291,2,0,1,87003,WMM1,411039,false,false,505,image-keyboard-response,15
true,4,1,1,1,true,z,false,true,0.0-2.0-0.15-0.136-3.136,0,0,0,90,false,stim,false,2,505,2,0,1,87003,WMM1,413074,false,false,508,image-keyboard-response,16
true,4,0,1,0,true,q,false,false,0.0-2.0-0.15-0.137-3.137,0,0,0,81,false,stim,false,2,413,2,0,2,87003,WMM1,415022,false,true,511,image-keyboard-response,17
true,4,1,1,1,true,z,false,false,0.0-2.0-0.15-0.138-3.138,0,0,0,90,false,stim,false,0,521,2,0,0,87003,WMM1,417071,false,true,514,image-keyboard-response,18
true,4,1,1,0,false,q,true,false,0.0-2.0-0.15-0.139-3.139,0,0,0,90,false,stim,false,2,479,2,0,2,87003,WMM1,419080,false,false,517,image-keyboard-response,19
true,4,0,1,1,false,z,false,false,0.0-2.0-0.15-0.140-3.140,0,0,0,81,false,stim,true,0,441,2,0,0,87003,WMM1,421060,false,false,520,image-keyboard-response,20
true,4,1,1,0,false,q,true,false,0.0-2.0-0.15-0.141-3.141,0,0,0,90,false,stim,false,2,937,2,0,2,87003,WMM1,423535,false,false,523,image-keyboard-response,21
true,4,1,1,1,true,z,false,true,0.0-2.0-0.15-0.142-3.142,0,0,0,90,false,stim,false,0,1564,2,0,0,87003,WMM1,426645,false,false,526,image-keyboard-response,22
true,4,1,1,1,true,z,false,false,0.0-2.0-0.15-0.143-3.143,0,0,0,90,false,stim,false,2,496,2,0,1,87003,WMM1,428677,false,true,529,image-keyboard-response,23
true,4,2,1,0,false,q,false,false,0.0-2.0-0.16-0.144-3.144,0,0,0,68,false,stim,true,2,722,2,0,2,87003,WMM1,430941,false,false,532,image-keyboard-response,24
true,4,1,1,1,true,z,false,true,0.0-2.0-0.16-0.145-3.145,0,0,0,90,false,stim,false,0,761,2,0,0,87003,WMM1,433240,false,false,535,image-keyboard-response,25
true,4,0,1,1,false,z,true,false,0.0-2.0-0.16-0.146-3.146,0,0,0,81,false,stim,false,2,862,2,0,1,87003,WMM1,435633,false,false,538,image-keyboard-response,26
true,4,1,1,1,true,z,false,true,0.0-2.0-0.16-0.147-3.147,0,0,0,90,false,stim,false,2,630,2,0,1,87003,WMM1,437797,false,false,541,image-keyboard-response,27
true,4,1,1,0,false,q,true,false,0.0-2.0-0.16-0.148-3.148,0,0,0,90,false,stim,false,2,2394,2,0,2,87003,WMM1,441724,false,false,544,image-keyboard-response,28
true,4,0,1,0,true,q,false,true,0.0-2.0-0.16-0.149-3.149,0,0,0,81,false,stim,false,2,438,2,0,2,87003,WMM1,443698,false,false,547,image-keyboard-response,29
true,4,1,1,1,true,z,false,true,0.0-2.0-0.16-0.150-3.150,0,0,0,90,false,stim,false,0,526,2,0,0,87003,WMM1,445766,false,false,550,image-keyboard-response,30
true,4,1,1,1,true,z,false,false,0.0-2.0-0.16-0.151-3.151,0,0,0,90,false,stim,false,0,487,2,0,0,87003,WMM1,447784,false,true,553,image-keyboard-response,31
true,4,1,1,1,true,z,false,true,0.0-2.0-0.16-0.152-3.152,0,0,0,90,false,stim,false,2,545,2,0,1,87003,WMM1,449864,false,false,556,image-keyboard-response,32
true,4,1,1,1,true,z,false,true,0.0-2.0-0.17-0.153-3.153,0,0,0,90,false,stim,false,0,619,2,0,0,87003,WMM1,452018,false,false,559,image-keyboard-response,33
true,4,0,1,1,false,z,true,false,0.0-2.0-0.17-0.154-3.154,0,0,0,81,false,stim,false,2,513,2,0,1,87003,WMM1,454071,false,false,562,image-keyboard-response,34
true,4,1,1,1,true,z,false,true,0.0-2.0-0.17-0.155-3.155,0,0,0,90,false,stim,false,0,540,2,0,0,87003,WMM1,456135,false,false,565,image-keyboard-response,35
true,4,0,1,0,true,q,false,true,0.0-2.0-0.17-0.156-3.156,0,0,0,81,false,stim,false,2,567,2,0,2,87003,WMM1,458247,false,false,568,image-keyboard-response,36
true,4,1,1,1,true,z,false,true,0.0-2.0-0.17-0.157-3.157,0,0,0,90,false,stim,false,2,361,2,0,1,87003,WMM1,460141,false,false,571,image-keyboard-response,37
true,4,0,1,0,true,q,false,false,0.0-2.0-0.17-0.158-3.158,0,0,0,81,false,stim,false,2,526,2,0,2,87003,WMM1,462206,false,true,574,image-keyboard-response,38
true,4,1,1,1,true,z,false,true,0.0-2.0-0.17-0.159-3.159,0,0,0,90,false,stim,false,0,390,2,0,0,87003,WMM1,464129,false,false,577,image-keyboard-response,39
true,4,1,1,1,true,z,false,true,0.0-2.0-0.17-0.160-3.160,0,0,0,90,false,stim,false,2,420,2,0,1,87003,WMM1,466080,false,false,580,image-keyboard-response,40
true,4,0,1,0,true,q,false,true,0.0-2.0-0.17-0.161-3.161,0,0,0,81,false,stim,false,2,581,2,0,2,87003,WMM1,468180,false,false,583,image-keyboard-response,41
true,4,1,1,1,true,z,false,true,0.0-2.0-0.18-0.162-3.162,0,0,0,90,false,stim,false,2,384,2,0,1,87003,WMM1,470102,false,false,586,image-keyboard-response,42
true,4,1,1,1,true,z,false,true,0.0-2.0-0.18-0.163-3.163,0,0,0,90,false,stim,false,0,553,2,0,0,87003,WMM1,472191,false,false,589,image-keyboard-response,43
true,4,0,1,0,true,q,false,true,0.0-2.0-0.18-0.164-3.164,0,0,0,81,false,stim,false,2,630,2,0,2,87003,WMM1,474349,false,false,592,image-keyboard-response,44
true,4,1,1,1,true,z,false,true,0.0-2.0-0.18-0.165-3.165,0,0,0,90,false,stim,false,0,508,2,0,0,87003,WMM1,476375,false,false,595,image-keyboard-response,45
true,4,1,1,1,true,z,false,true,0.0-2.0-0.18-0.166-3.166,0,0,0,90,false,stim,false,0,438,2,0,0,87003,WMM1,478347,false,false,598,image-keyboard-response,46
true,4,0,1,1,false,z,true,false,0.0-2.0-0.18-0.167-3.167,0,0,0,81,false,stim,false,2,462,2,0,1,87003,WMM1,480357,false,false,601,image-keyboard-response,47
true,4,0,1,0,true,q,false,true,0.0-2.0-0.18-0.168-3.168,0,0,0,81,false,stim,false,2,394,2,0,2,87003,WMM1,482295,false,false,604,image-keyboard-response,48
true,4,0,1,0,true,q,false,true,0.0-2.0-0.18-0.169-3.169,0,0,0,81,false,stim,false,2,675,2,0,2,87003,WMM1,484493,false,false,607,image-keyboard-response,49
true,4,1,1,1,true,z,false,true,0.0-2.0-0.18-0.170-3.170,0,0,0,90,false,stim,false,2,681,2,0,1,87003,WMM1,486698,false,false,610,image-keyboard-response,50
true,5,1,2,2,false,d,false,false,0.0-2.0-0.19-0.171-3.171,0,0,0,90,true,stim,true,1,360,2,0,1,87003,WMM1,488589,false,false,613,image-keyboard-response,1
true,5,1,2,0,false,q,false,false,0.0-2.0-0.19-0.172-3.172,0,0,0,90,false,stim,true,1,736,2,0,0,87003,WMM1,490867,false,false,616,image-keyboard-response,2
true,5,1,2,2,false,d,false,false,0.0-2.0-0.19-0.173-3.173,0,0,0,90,false,stim,true,1,579,2,0,1,87003,WMM1,492989,false,false,619,image-keyboard-response,3
true,5,2,2,0,false,q,true,false,0.0-2.0-0.19-0.174-3.174,0,0,0,68,false,stim,false,1,757,2,0,0,87003,WMM1,495278,false,false,622,image-keyboard-response,4
true,5,0,2,2,false,d,false,true,0.0-2.0-0.19-0.175-3.175,0,0,0,81,false,stim,true,0,738,2,0,2,87003,WMM1,497559,false,true,625,image-keyboard-response,5
true,5,0,2,2,false,d,false,false,0.0-2.0-0.19-0.176-3.176,0,0,0,81,false,stim,true,0,648,2,0,2,87003,WMM1,499750,false,false,628,image-keyboard-response,6
true,5,1,2,2,false,d,false,true,0.0-2.0-0.19-0.177-3.177,0,0,0,90,false,stim,true,1,1195,2,0,1,87003,WMM1,502475,false,true,631,image-keyboard-response,7
true,5,0,2,2,false,d,false,false,0.0-2.0-0.19-0.178-3.178,0,0,0,81,false,stim,true,0,660,2,0,2,87003,WMM1,504659,false,false,634,image-keyboard-response,8
true,5,1,2,0,false,q,false,false,0.0-2.0-0.19-0.179-3.179,0,0,0,90,false,stim,true,1,452,2,0,0,87003,WMM1,506652,false,false,637,image-keyboard-response,9
true,5,1,2,2,false,d,false,true,0.0-2.0-0.20-0.180-3.180,0,0,0,90,false,stim,true,1,896,2,0,1,87003,WMM1,509077,false,true,640,image-keyboard-response,10
true,5,0,2,0,true,q,false,true,0.0-2.0-0.20-0.181-3.181,0,0,0,81,false,stim,false,1,1145,2,0,0,87003,WMM1,511767,false,false,643,image-keyboard-response,11
true,5,1,2,2,false,d,false,false,0.0-2.0-0.20-0.182-3.182,0,0,0,90,false,stim,true,1,597,2,0,1,87003,WMM1,513896,false,false,646,image-keyboard-response,12
true,5,2,2,2,true,d,false,true,0.0-2.0-0.20-0.183-3.183,0,0,0,68,false,stim,false,0,540,2,0,2,87003,WMM1,515969,false,false,649,image-keyboard-response,13
true,5,0,2,0,true,q,false,true,0.0-2.0-0.20-0.184-3.184,0,0,0,81,false,stim,false,1,736,2,0,0,87003,WMM1,518246,false,false,652,image-keyboard-response,14
true,5,2,2,2,true,d,false,true,0.0-2.0-0.20-0.185-3.185,0,0,0,68,false,stim,false,0,707,2,0,2,87003,WMM1,520497,false,false,655,image-keyboard-response,15
true,5,2,2,2,true,d,false,true,0.0-2.0-0.20-0.186-3.186,0,0,0,68,false,stim,false,0,670,2,0,2,87003,WMM1,522700,false,false,658,image-keyboard-response,16
true,5,0,2,2,false,d,true,false,0.0-2.0-0.20-0.187-3.187,0,0,0,81,false,stim,false,1,654,2,0,1,87003,WMM1,524877,false,false,661,image-keyboard-response,17
true,5,0,2,0,true,q,false,true,0.0-2.0-0.20-0.188-3.188,0,0,0,81,false,stim,false,1,577,2,0,0,87003,WMM1,526985,false,false,664,image-keyboard-response,18
true,5,2,2,2,true,d,false,true,0.0-2.0-0.21-0.189-3.189,0,0,0,68,false,stim,false,0,471,2,0,2,87003,WMM1,528981,false,false,667,image-keyboard-response,19
true,5,2,2,2,true,d,false,true,0.0-2.0-0.21-0.190-3.190,0,0,0,68,false,stim,false,0,534,2,0,2,87003,WMM1,531044,false,false,670,image-keyboard-response,20
true,5,2,2,2,true,d,false,true,0.0-2.0-0.21-0.191-3.191,0,0,0,68,false,stim,false,1,373,2,0,1,87003,WMM1,532962,false,false,673,image-keyboard-response,21
true,5,2,2,2,true,d,false,true,0.0-2.0-0.21-0.192-3.192,0,0,0,68,false,stim,false,1,425,2,0,1,87003,WMM1,534925,false,false,676,image-keyboard-response,22
true,5,2,2,2,true,d,false,true,0.0-2.0-0.21-0.193-3.193,0,0,0,68,false,stim,false,0,446,2,0,2,87003,WMM1,536906,false,false,679,image-keyboard-response,23
true,5,0,2,0,true,q,false,true,0.0-2.0-0.21-0.194-3.194,0,0,0,81,false,stim,false,1,456,2,0,0,87003,WMM1,538895,false,false,682,image-keyboard-response,24
true,5,0,2,0,true,q,false,true,0.0-2.0-0.21-0.195-3.195,0,0,0,81,false,stim,false,1,489,2,0,0,87003,WMM1,540907,false,false,685,image-keyboard-response,25
true,5,0,2,0,true,q,false,true,0.0-2.0-0.21-0.196-3.196,0,0,0,81,false,stim,false,1,567,2,0,0,87003,WMM1,543004,false,false,688,image-keyboard-response,26
true,5,2,2,2,true,d,false,true,0.0-2.0-0.21-0.197-3.197,0,0,0,68,false,stim,false,1,648,2,0,1,87003,WMM1,545184,false,false,691,image-keyboard-response,27
true,5,2,2,2,true,d,false,true,0.0-2.0-0.22-0.198-3.198,0,0,0,68,false,stim,false,1,353,2,0,1,87003,WMM1,547063,false,false,694,image-keyboard-response,28
true,5,2,2,2,true,d,false,true,0.0-2.0-0.22-0.199-3.199,0,0,0,68,false,stim,false,1,410,2,0,1,87003,WMM1,548997,false,false,697,image-keyboard-response,29
true,5,2,2,2,true,d,false,true,0.0-2.0-0.22-0.200-3.200,0,0,0,68,false,stim,false,0,427,2,0,2,87003,WMM1,550954,false,false,700,image-keyboard-response,30
true,5,0,2,0,true,q,false,true,0.0-2.0-0.22-0.201-3.201,0,0,0,81,false,stim,false,1,629,2,0,0,87003,WMM1,553117,false,false,703,image-keyboard-response,31
true,5,0,2,0,true,q,false,true,0.0-2.0-0.22-0.202-3.202,0,0,0,81,false,stim,false,1,494,2,0,0,87003,WMM1,555132,false,false,706,image-keyboard-response,32
true,6,2,4,0,false,q,false,false,0.0-2.0-0.22-0.203-3.203,0,0,0,68,true,stim,true,2,431,2,0,1,87003,WMM1,557089,false,false,709,image-keyboard-response,1
true,6,2,4,1,false,z,false,false,0.0-2.0-0.22-0.204-3.204,0,0,0,68,false,stim,true,2,388,2,0,2,87003,WMM1,559006,false,false,712,image-keyboard-response,2
true,6,2,4,1,false,z,false,false,0.0-2.0-0.22-0.205-3.205,0,0,0,68,false,stim,true,2,381,2,0,2,87003,WMM1,560918,false,false,715,image-keyboard-response,3
true,6,0,4,2,false,d,false,false,0.0-2.0-0.22-0.206-3.206,0,0,0,81,false,stim,true,0,528,2,0,0,87003,WMM1,562977,false,false,718,image-keyboard-response,4
true,6,0,4,2,false,d,false,false,0.0-2.0-0.23-0.207-3.207,0,0,0,81,false,stim,true,0,553,2,0,0,87003,WMM1,565060,false,false,721,image-keyboard-response,5
true,6,1,4,2,false,d,true,false,0.0-2.0-0.23-0.208-3.208,0,0,0,90,false,stim,false,0,773,2,0,0,87003,WMM1,567360,false,false,724,image-keyboard-response,6
true,6,0,4,1,false,z,true,true,0.0-2.0-0.23-0.209-3.209,0,0,0,81,false,stim,false,2,1070,2,0,2,87003,WMM1,569949,false,true,727,image-keyboard-response,7
true,6,2,4,2,true,d,false,true,0.0-2.0-0.23-0.210-3.210,0,0,0,68,false,stim,false,0,494,2,0,0,87003,WMM1,571975,false,false,730,image-keyboard-response,8
true,6,1,4,0,false,q,true,false,0.0-2.0-0.23-0.211-3.211,0,0,0,90,false,stim,false,2,746,2,0,1,87003,WMM1,574270,false,false,733,image-keyboard-response,9
true,6,0,4,1,false,z,true,false,0.0-2.0-0.23-0.212-3.212,0,0,0,81,false,stim,false,2,455,2,0,2,87003,WMM1,576253,false,false,736,image-keyboard-response,10
true,6,0,4,1,false,z,true,true,0.0-2.0-0.23-0.213-3.213,0,0,0,81,false,stim,false,2,407,2,0,2,87003,WMM1,578187,false,true,739,image-keyboard-response,11
true,6,2,4,0,false,q,false,false,0.0-2.0-0.23-0.214-3.214,0,0,0,68,false,stim,true,2,658,2,0,1,87003,WMM1,580389,false,false,742,image-keyboard-response,12
true,6,0,4,0,true,q,false,true,0.0-2.0-0.23-0.215-3.215,0,0,0,81,false,stim,false,2,479,2,0,1,87003,WMM1,582406,false,false,745,image-keyboard-response,13
true,6,0,4,1,false,z,true,false,0.0-2.0-0.24-0.216-3.216,0,0,0,81,false,stim,false,2,586,2,0,2,87003,WMM1,584526,false,false,748,image-keyboard-response,14
true,6,2,4,2,true,d,false,true,0.0-2.0-0.24-0.217-3.217,0,0,0,68,false,stim,false,0,609,2,0,0,87003,WMM1,586667,false,false,751,image-keyboard-response,15
true,6,2,4,2,true,d,false,true,0.0-2.0-0.24-0.218-3.218,0,0,0,68,false,stim,false,0,659,2,0,0,87003,WMM1,588868,false,false,754,image-keyboard-response,16
true,6,0,4,1,false,z,true,false,0.0-2.0-0.24-0.219-3.219,0,0,0,81,false,stim,false,2,629,2,0,2,87003,WMM1,591038,false,false,757,image-keyboard-response,17
true,6,0,4,0,true,q,false,true,0.0-2.0-0.24-0.220-3.220,0,0,0,81,false,stim,false,2,460,2,0,1,87003,WMM1,593031,false,false,760,image-keyboard-response,18
true,6,1,4,1,true,z,false,true,0.0-2.0-0.24-0.221-3.221,0,0,0,90,false,stim,false,2,433,2,0,2,87003,WMM1,595000,false,false,763,image-keyboard-response,19
true,6,0,4,0,true,q,false,true,0.0-2.0-0.24-0.222-3.222,0,0,0,81,false,stim,false,2,441,2,0,1,87003,WMM1,596960,false,false,766,image-keyboard-response,20
true,6,0,4,0,true,q,false,true,0.0-2.0-0.24-0.223-3.223,0,0,0,81,false,stim,false,2,602,2,0,1,87003,WMM1,599100,false,false,769,image-keyboard-response,21
true,6,2,4,2,true,d,false,true,0.0-2.0-0.24-0.224-3.224,0,0,0,68,false,stim,false,0,610,2,0,0,87003,WMM1,601251,false,false,772,image-keyboard-response,22
true,6,0,4,0,true,q,false,true,0.0-2.0-0.25-0.225-3.225,0,0,0,81,false,stim,false,2,535,2,0,1,87003,WMM1,603316,false,false,775,image-keyboard-response,23
true,6,0,4,0,true,q,false,false,0.0-2.0-0.25-0.226-3.226,0,0,0,81,false,stim,false,2,451,2,0,1,87003,WMM1,605301,false,true,778,image-keyboard-response,24
true,6,0,4,0,true,q,false,true,0.0-2.0-0.25-0.227-3.227,0,0,0,81,false,stim,false,2,428,2,0,1,87003,WMM1,607258,false,false,781,image-keyboard-response,25
true,6,1,4,1,true,z,false,true,0.0-2.0-0.25-0.228-3.228,0,0,0,90,false,stim,false,2,537,2,0,2,87003,WMM1,609327,false,false,784,image-keyboard-response,26
true,6,2,4,2,true,d,false,true,0.0-2.0-0.25-0.229-3.229,0,0,0,68,false,stim,false,0,590,2,0,0,87003,WMM1,611460,false,false,787,image-keyboard-response,27
true,6,1,4,1,true,z,false,true,0.0-2.0-0.25-0.230-3.230,0,0,0,90,false,stim,false,2,955,2,0,2,87003,WMM1,613943,false,false,790,image-keyboard-response,28
true,6,2,4,2,true,d,false,false,0.0-2.0-0.25-0.231-3.231,0,0,0,68,false,stim,false,0,1646,2,0,0,87003,WMM1,617116,false,true,793,image-keyboard-response,29
true,6,2,4,2,true,d,false,true,0.0-2.0-0.25-0.232-3.232,0,0,0,68,false,stim,false,0,855,2,0,0,87003,WMM1,619506,false,false,796,image-keyboard-response,30
true,6,1,4,1,true,z,false,true,0.0-2.0-0.25-0.233-3.233,0,0,0,90,false,stim,false,2,794,2,0,2,87003,WMM1,621832,false,false,799,image-keyboard-response,31
true,6,2,4,2,true,d,false,true,0.0-2.0-0.26-0.234-3.234,0,0,0,68,false,stim,false,0,862,2,0,0,87003,WMM1,624242,false,false,802,image-keyboard-response,32
true,6,0,4,0,true,q,false,true,0.0-2.0-0.26-0.235-3.235,0,0,0,81,false,stim,false,2,644,2,0,1,87003,WMM1,626424,false,false,805,image-keyboard-response,33
true,6,0,4,0,true,q,false,false,0.0-2.0-0.26-0.236-3.236,0,0,0,81,false,stim,false,2,570,2,0,1,87003,WMM1,628529,false,true,808,image-keyboard-response,34
true,6,1,4,1,true,z,false,true,0.0-2.0-0.26-0.237-3.237,0,0,0,90,false,stim,false,2,618,2,0,2,87003,WMM1,630676,false,false,811,image-keyboard-response,35
true,6,1,4,1,true,z,false,true,0.0-2.0-0.26-0.238-3.238,0,0,0,90,false,stim,false,2,397,2,0,2,87003,WMM1,632605,false,false,814,image-keyboard-response,36
true,7,0,2,2,false,d,false,false,0.0-2.0-0.26-0.239-3.239,0,0,0,81,true,stim,true,0,715,2,0,1,87003,WMM1,634843,false,false,817,image-keyboard-response,1
true,7,2,2,0,false,q,false,true,0.0-2.0-0.26-0.240-3.240,0,0,0,68,false,stim,true,2,785,2,0,0,87003,WMM1,637153,false,true,820,image-keyboard-response,2
true,7,1,2,2,false,d,false,false,0.0-2.0-0.26-0.241-3.241,0,0,0,90,false,stim,true,1,668,2,0,2,87003,WMM1,639358,false,false,823,image-keyboard-response,3
true,7,2,2,0,false,q,false,true,0.0-2.0-0.26-0.242-3.242,0,0,0,68,false,stim,true,2,633,2,0,0,87003,WMM1,641520,false,true,826,image-keyboard-response,4
true,7,2,2,0,false,q,false,false,0.0-2.0-0.27-0.243-3.243,0,0,0,68,false,stim,true,2,780,2,0,0,87003,WMM1,643830,false,false,829,image-keyboard-response,5
true,7,2,2,2,true,d,false,true,0.0-2.0-0.27-0.244-3.244,0,0,0,68,false,stim,false,0,1560,2,0,1,87003,WMM1,646929,false,false,832,image-keyboard-response,6
true,7,2,2,0,false,q,false,false,0.0-2.0-0.27-0.245-3.245,0,0,0,68,false,stim,true,2,647,2,0,0,87003,WMM1,649114,false,false,835,image-keyboard-response,7
true,7,2,2,2,true,d,false,true,0.0-2.0-0.27-0.246-3.246,0,0,0,68,false,stim,false,0,685,2,0,1,87003,WMM1,651334,false,false,838,image-keyboard-response,8
true,7,1,2,0,false,q,true,false,0.0-2.0-0.27-0.247-3.247,0,0,0,90,false,stim,false,2,525,2,0,0,87003,WMM1,653394,false,false,841,image-keyboard-response,9
true,7,2,2,2,true,d,false,true,0.0-2.0-0.27-0.248-3.248,0,0,0,68,false,stim,false,0,770,2,0,1,87003,WMM1,655690,false,false,844,image-keyboard-response,10
true,7,1,2,2,false,d,false,false,0.0-2.0-0.27-0.249-3.249,0,0,0,90,false,stim,true,1,612,2,0,2,87003,WMM1,657831,false,false,847,image-keyboard-response,11
true,7,0,2,2,false,d,true,false,0.0-2.0-0.27-0.250-3.250,0,0,0,81,false,stim,false,1,700,2,0,2,87003,WMM1,660071,false,false,850,image-keyboard-response,12
true,7,2,2,2,true,d,false,true,0.0-2.0-0.27-0.251-3.251,0,0,0,68,false,stim,false,1,459,2,0,2,87003,WMM1,662068,false,false,853,image-keyboard-response,13
true,7,0,2,0,true,q,false,true,0.0-2.0-0.28-0.252-3.252,0,0,0,81,false,stim,false,2,543,2,0,0,87003,WMM1,664143,false,false,856,image-keyboard-response,14
true,7,2,2,2,true,d,false,true,0.0-2.0-0.28-0.253-3.253,0,0,0,68,false,stim,false,1,618,2,0,2,87003,WMM1,666299,false,false,859,image-keyboard-response,15
true,7,0,2,0,true,q,false,false,0.0-2.0-0.28-0.254-3.254,0,0,0,81,false,stim,false,2,434,2,0,0,87003,WMM1,668274,false,true,862,image-keyboard-response,16
true,7,2,2,2,true,d,false,false,0.0-2.0-0.28-0.255-3.255,0,0,0,68,false,stim,false,0,396,2,0,1,87003,WMM1,670196,false,true,865,image-keyboard-response,17
true,7,2,2,2,true,d,false,true,0.0-2.0-0.28-0.256-3.256,0,0,0,68,false,stim,false,1,795,2,0,2,87003,WMM1,672532,false,false,868,image-keyboard-response,18
true,7,2,2,2,true,d,false,true,0.0-2.0-0.28-0.257-3.257,0,0,0,68,false,stim,false,0,470,2,0,1,87003,WMM1,674540,false,false,871,image-keyboard-response,19
true,7,0,2,0,true,q,false,true,0.0-2.0-0.28-0.258-3.258,0,0,0,81,false,stim,false,2,402,2,0,0,87003,WMM1,676472,false,false,874,image-keyboard-response,20
true,7,2,2,2,true,d,false,true,0.0-2.0-0.28-0.259-3.259,0,0,0,68,false,stim,false,0,529,2,0,1,87003,WMM1,678540,false,false,877,image-keyboard-response,21
true,7,2,2,2,true,d,false,true,0.0-2.0-0.28-0.260-3.260,0,0,0,68,false,stim,false,1,666,2,0,2,87003,WMM1,680736,false,false,880,image-keyboard-response,22
true,7,2,2,2,true,d,false,true,0.0-2.0-0.29-0.261-3.261,0,0,0,68,false,stim,false,1,488,2,0,2,87003,WMM1,682756,false,false,883,image-keyboard-response,23
true,7,0,2,0,true,q,false,true,0.0-2.0-0.29-0.262-3.262,0,0,0,81,false,stim,false,2,541,2,0,0,87003,WMM1,684831,false,false,886,image-keyboard-response,24
true,7,2,2,2,true,d,false,true,0.0-2.0-0.29-0.263-3.263,0,0,0,68,false,stim,false,1,522,2,0,2,87003,WMM1,686892,false,false,889,image-keyboard-response,25
true,7,2,2,2,true,d,false,true,0.0-2.0-0.29-0.264-3.264,0,0,0,68,false,stim,false,0,419,2,0,1,87003,WMM1,688838,false,false,892,image-keyboard-response,26
true,7,2,2,2,true,d,false,true,0.0-2.0-0.29-0.265-3.265,0,0,0,68,false,stim,false,0,538,2,0,1,87003,WMM1,690917,false,false,895,image-keyboard-response,27
true,7,2,2,2,true,d,false,true,0.0-2.0-0.29-0.266-3.266,0,0,0,68,false,stim,false,0,632,2,0,1,87003,WMM1,693092,false,false,898,image-keyboard-response,28
true,7,0,2,0,true,q,false,true,0.0-2.0-0.29-0.267-3.267,0,0,0,81,false,stim,false,2,519,2,0,0,87003,WMM1,695153,false,false,901,image-keyboard-response,29
true,7,0,2,0,true,q,false,true,0.0-2.0-0.29-0.268-3.268,0,0,0,81,false,stim,false,2,604,2,0,0,87003,WMM1,697295,false,false,904,image-keyboard-response,30
true,8,2,1,0,false,q,false,false,0.0-2.0-0.29-0.269-3.269,0,0,0,68,true,stim,true,2,560,2,0,2,87003,WMM1,699389,false,false,907,image-keyboard-response,1
true,8,0,1,2,false,d,false,true,0.0-2.0-0.30-0.270-3.270,0,0,0,81,false,stim,true,0,500,2,0,0,87003,WMM1,701420,false,true,910,image-keyboard-response,2
true,8,2,1,0,false,q,false,false,0.0-2.0-0.30-0.271-3.271,0,0,0,68,false,stim,true,2,476,2,0,1,87003,WMM1,703425,false,false,913,image-keyboard-response,3
true,8,2,1,0,false,q,false,false,0.0-2.0-0.30-0.272-3.272,0,0,0,68,false,stim,true,2,450,2,0,2,87003,WMM1,705400,false,false,916,image-keyboard-response,4
true,8,1,1,0,false,q,true,true,0.0-2.0-0.30-0.273-3.273,0,0,0,90,false,stim,false,2,756,2,0,1,87003,WMM1,707685,false,true,919,image-keyboard-response,5
true,8,1,1,0,false,q,true,false,0.0-2.0-0.30-0.274-3.274,0,0,0,90,false,stim,false,2,973,2,0,1,87003,WMM1,710183,false,false,922,image-keyboard-response,6
true,8,0,1,2,false,d,false,false,0.0-2.0-0.30-0.275-3.275,0,0,0,81,false,stim,true,0,627,2,0,0,87003,WMM1,712336,false,false,925,image-keyboard-response,7
true,8,0,1,0,true,q,false,true,0.0-2.0-0.30-0.276-3.276,0,0,0,81,false,stim,false,2,982,2,0,2,87003,WMM1,714850,false,false,928,image-keyboard-response,8
true,8,0,1,2,false,d,false,false,0.0-2.0-0.30-0.277-3.277,0,0,0,81,false,stim,true,0,1051,2,0,0,87003,WMM1,717431,false,false,931,image-keyboard-response,9
true,8,0,1,0,true,q,false,false,0.0-2.0-0.30-0.278-3.278,0,0,0,81,false,stim,false,2,726,2,0,2,87003,WMM1,719695,false,true,934,image-keyboard-response,10
true,8,0,1,0,true,q,false,true,0.0-2.0-0.31-0.279-3.279,0,0,0,81,false,stim,false,2,725,2,0,2,87003,WMM1,721955,false,false,937,image-keyboard-response,11
true,8,1,1,0,false,q,true,false,0.0-2.0-0.31-0.280-3.280,0,0,0,90,false,stim,false,2,468,2,0,1,87003,WMM1,723959,false,false,940,image-keyboard-response,12
true,8,0,1,0,true,q,false,true,0.0-2.0-0.31-0.281-3.281,0,0,0,81,false,stim,false,2,1021,2,0,2,87003,WMM1,726511,false,false,943,image-keyboard-response,13
true,8,2,1,0,false,q,false,false,0.0-2.0-0.31-0.282-3.282,0,0,0,68,false,stim,true,2,538,2,0,1,87003,WMM1,728577,false,false,946,image-keyboard-response,14
true,8,0,1,0,true,q,false,true,0.0-2.0-0.31-0.283-3.283,0,0,0,81,false,stim,false,2,891,2,0,2,87003,WMM1,731010,false,false,949,image-keyboard-response,15
true,8,2,1,2,true,d,false,true,0.0-2.0-0.31-0.284-3.284,0,0,0,68,false,stim,false,0,930,2,0,0,87003,WMM1,733469,false,false,952,image-keyboard-response,16
true,8,0,1,0,true,q,false,true,0.0-2.0-0.31-0.285-3.285,0,0,0,81,false,stim,false,2,390,2,0,1,87003,WMM1,735390,false,false,955,image-keyboard-response,17
true,8,2,1,2,true,d,false,true,0.0-2.0-0.31-0.286-3.286,0,0,0,68,false,stim,false,0,530,2,0,0,87003,WMM1,737451,false,false,958,image-keyboard-response,18
true,8,2,1,2,true,d,false,true,0.0-2.0-0.31-0.287-3.287,0,0,0,68,false,stim,false,0,462,2,0,0,87003,WMM1,739440,false,false,961,image-keyboard-response,19
true,8,0,1,0,true,q,false,true,0.0-2.0-0.32-0.288-3.288,0,0,0,81,false,stim,false,2,708,2,0,1,87003,WMM1,741689,false,false,964,image-keyboard-response,20
true,8,0,1,0,true,q,false,true,0.0-2.0-0.32-0.289-3.289,0,0,0,81,false,stim,false,2,411,2,0,1,87003,WMM1,743642,false,false,967,image-keyboard-response,21
true,8,0,1,0,true,q,false,true,0.0-2.0-0.32-0.290-3.290,0,0,0,81,false,stim,false,2,1158,2,0,2,87003,WMM1,746328,false,false,970,image-keyboard-response,22
true,8,0,1,0,true,q,false,true,0.0-2.0-0.32-0.291-3.291,0,0,0,81,false,stim,false,2,442,2,0,2,87003,WMM1,748312,false,false,973,image-keyboard-response,23
true,8,2,1,2,true,d,false,false,0.0-2.0-0.32-0.292-3.292,0,0,0,68,false,stim,false,0,546,2,0,0,87003,WMM1,750393,false,true,976,image-keyboard-response,24
true,8,0,1,0,true,q,false,true,0.0-2.0-0.32-0.293-3.293,0,0,0,81,false,stim,false,2,713,2,0,1,87003,WMM1,752646,false,false,979,image-keyboard-response,25
true,8,0,1,0,true,q,false,true,0.0-2.0-0.32-0.294-3.294,0,0,0,81,false,stim,false,2,579,2,0,2,87003,WMM1,754768,false,false,982,image-keyboard-response,26
true,8,2,1,2,true,d,false,false,0.0-2.0-0.32-0.295-3.295,0,0,0,68,false,stim,false,0,507,2,0,0,87003,WMM1,756807,false,true,985,image-keyboard-response,27
true,8,1,1,2,false,d,true,false,0.0-2.0-0.32-0.296-3.296,0,0,0,90,false,stim,false,0,451,2,0,0,87003,WMM1,758791,false,false,988,image-keyboard-response,28
true,8,0,1,0,true,q,false,true,0.0-2.0-0.33-0.297-3.297,0,0,0,81,false,stim,false,2,947,2,0,1,87003,WMM1,761276,false,false,991,image-keyboard-response,29
true,8,0,1,0,true,q,false,true,0.0-2.0-0.33-0.298-3.298,0,0,0,81,false,stim,false,2,409,2,0,1,87003,WMM1,763218,false,false,994,image-keyboard-response,30
true,9,0,2,0,true,q,false,true,0.0-2.0-0.33-0.299-3.299,0,0,0,81,true,stim,false,2,499,2,0,0,87003,WMM1,765249,false,false,997,image-keyboard-response,1
true,9,0,2,2,false,d,false,false,0.0-2.0-0.33-0.300-3.300,0,0,0,81,false,stim,true,0,419,2,0,2,87003,WMM1,767199,false,false,1000,image-keyboard-response,2
true,9,0,2,0,true,q,false,true,0.0-2.0-0.33-0.301-3.301,0,0,0,81,false,stim,false,2,573,2,0,0,87003,WMM1,769333,false,false,1003,image-keyboard-response,3
true,9,1,2,2,false,d,true,false,0.0-2.0-0.33-0.302-3.302,0,0,0,90,false,stim,false,0,589,2,0,2,87003,WMM1,771450,false,false,1006,image-keyboard-response,4
true,9,2,2,2,true,d,false,true,0.0-2.0-0.33-0.303-3.303,0,0,0,68,false,stim,false,0,619,2,0,2,87003,WMM1,773598,false,false,1009,image-keyboard-response,5
true,9,0,2,0,true,q,false,false,0.0-2.0-0.33-0.304-3.304,0,0,0,81,false,stim,false,2,526,2,0,0,87003,WMM1,775667,false,true,1012,image-keyboard-response,6
true,9,0,2,2,false,d,false,false,0.0-2.0-0.33-0.305-3.305,0,0,0,81,false,stim,true,0,313,2,0,1,87003,WMM1,777514,false,false,1015,image-keyboard-response,7
true,9,0,2,2,false,d,false,false,0.0-2.0-0.34-0.306-3.306,0,0,0,81,false,stim,true,0,350,2,0,1,87003,WMM1,779390,false,false,1018,image-keyboard-response,8
true,9,0,2,0,true,q,false,true,0.0-2.0-0.34-0.307-3.307,0,0,0,81,false,stim,false,2,347,2,0,0,87003,WMM1,781278,false,false,1021,image-keyboard-response,9
true,9,1,2,2,false,d,true,false,0.0-2.0-0.34-0.308-3.308,0,0,0,90,false,stim,false,0,406,2,0,1,87003,WMM1,783222,false,false,1024,image-keyboard-response,10
true,9,0,2,0,true,q,false,true,0.0-2.0-0.34-0.309-3.309,0,0,0,81,false,stim,false,2,597,2,0,0,87003,WMM1,785366,false,false,1027,image-keyboard-response,11
true,9,0,2,0,true,q,false,true,0.0-2.0-0.34-0.310-3.310,0,0,0,81,false,stim,false,2,635,2,0,0,87003,WMM1,787533,false,false,1030,image-keyboard-response,12
true,9,2,2,2,true,d,false,true,0.0-2.0-0.34-0.311-3.311,0,0,0,68,false,stim,false,0,458,2,0,2,87003,WMM1,789519,false,false,1033,image-keyboard-response,13
true,9,2,2,2,true,d,false,true,0.0-2.0-0.34-0.312-3.312,0,0,0,68,false,stim,false,0,580,2,0,2,87003,WMM1,791641,false,false,1036,image-keyboard-response,14
true,9,2,2,2,true,d,false,true,0.0-2.0-0.34-0.313-3.313,0,0,0,68,false,stim,false,0,445,2,0,2,87003,WMM1,793624,false,false,1039,image-keyboard-response,15
true,9,2,2,2,true,d,false,true,0.0-2.0-0.34-0.314-3.314,0,0,0,68,false,stim,false,0,331,2,0,1,87003,WMM1,795493,false,false,1042,image-keyboard-response,16
true,9,0,2,0,true,q,false,true,0.0-2.0-0.35-0.315-3.315,0,0,0,81,false,stim,false,2,505,2,0,0,87003,WMM1,797524,false,false,1045,image-keyboard-response,17
true,9,2,2,2,true,d,false,true,0.0-2.0-0.35-0.316-3.316,0,0,0,68,false,stim,false,0,361,2,0,1,87003,WMM1,799422,false,false,1048,image-keyboard-response,18
true,9,2,2,2,true,d,false,true,0.0-2.0-0.35-0.317-3.317,0,0,0,68,false,stim,false,0,323,2,0,1,87003,WMM1,801278,false,false,1051,image-keyboard-response,19
true,9,0,2,2,false,d,false,false,0.0-2.0-0.35-0.318-3.318,0,0,0,81,false,stim,true,0,466,2,0,2,87003,WMM1,803286,false,false,1054,image-keyboard-response,20
true,9,2,2,2,true,d,false,true,0.0-2.0-0.35-0.319-3.319,0,0,0,68,false,stim,false,0,349,2,0,1,87003,WMM1,805168,false,false,1057,image-keyboard-response,21
true,9,2,2,2,true,d,false,true,0.0-2.0-0.35-0.320-3.320,0,0,0,68,false,stim,false,0,410,2,0,2,87003,WMM1,807112,false,false,1060,image-keyboard-response,22
true,9,0,2,0,true,q,false,false,0.0-2.0-0.35-0.321-3.321,0,0,0,81,false,stim,false,2,349,2,0,0,87003,WMM1,809008,false,true,1063,image-keyboard-response,23
true,9,0,2,0,true,q,false,true,0.0-2.0-0.35-0.322-3.322,0,0,0,81,false,stim,false,2,804,2,0,0,87003,WMM1,811353,false,false,1066,image-keyboard-response,24
true,9,2,2,2,true,d,false,true,0.0-2.0-0.35-0.323-3.323,0,0,0,68,false,stim,false,0,383,2,0,2,87003,WMM1,813272,false,false,1069,image-keyboard-response,25
true,9,2,2,2,true,d,false,true,0.0-2.0-0.36-0.324-3.324,0,0,0,68,false,stim,false,0,459,2,0,1,87003,WMM1,815268,false,false,1072,image-keyboard-response,26
true,9,0,2,0,true,q,false,true,0.0-2.0-0.36-0.325-3.325,0,0,0,81,false,stim,false,2,461,2,1,0,87003,WMM1,817259,false,false,1075,image-keyboard-response,27
true,9,2,2,2,true,d,false,true,0.0-2.0-0.36-0.326-3.326,0,0,0,68,false,stim,false,0,570,2,0,2,87003,WMM1,819369,false,false,1078,image-keyboard-response,28
true,9,0,2,0,true,q,false,false,0.0-2.0-0.36-0.327-3.327,0,0,0,81,false,stim,false,2,508,2,1,0,87003,WMM1,821416,false,true,1081,image-keyboard-response,29
true,9,1,2,2,false,d,true,false,0.0-2.0-0.36-0.328-3.328,0,0,0,90,false,stim,false,0,481,2,0,1,87003,WMM1,823432,false,false,1084,image-keyboard-response,30
true,9,2,2,2,true,d,false,true,0.0-2.0-0.36-0.329-3.329,0,0,0,68,false,stim,false,0,616,2,0,2,87003,WMM1,825588,false,false,1087,image-keyboard-response,31
true,9,1,2,0,false,q,true,false,0.0-2.0-0.36-0.330-3.330,0,0,0,90,false,stim,false,2,630,2,1,0,87003,WMM1,827739,false,false,1090,image-keyboard-response,32
true,9,2,2,2,true,d,false,false,0.0-2.0-0.36-0.331-3.331,0,0,0,68,false,stim,false,0,1068,2,0,1,87003,WMM1,830339,false,true,1093,image-keyboard-response,33
true,9,2,2,2,true,d,false,true,0.0-2.0-0.36-0.332-3.332,0,0,0,68,false,stim,false,0,704,2,0,2,87003,WMM1,832574,false,false,1096,image-keyboard-response,34
true,9,0,2,2,false,d,false,false,0.0-2.0-0.37-0.333-3.333,0,0,0,81,false,stim,true,0,622,2,0,1,87003,WMM1,834733,false,false,1099,image-keyboard-response,35
true,10,2,3,1,false,z,false,false,0.0-2.0-0.37-0.334-3.334,1,0,0,68,true,stim,true,2,802,2,0,2,87003,WMM1,837073,false,false,1102,image-keyboard-response,1
true,10,1,3,0,false,q,true,false,0.0-2.0-0.37-0.335-3.335,1,0,0,90,false,stim,false,2,801,2,0,1,87003,WMM1,839401,false,false,1105,image-keyboard-response,2
true,10,2,3,1,false,z,false,false,0.0-2.0-0.37-0.336-3.336,1,0,0,68,false,stim,true,2,671,2,0,2,87003,WMM1,841601,false,false,1108,image-keyboard-response,3
true,10,0,3,0,true,q,false,false,0.0-2.0-0.37-0.337-3.337,1,0,0,81,false,stim,false,0,1077,2,1,0,87003,WMM1,844208,false,true,1111,image-keyboard-response,4
true,10,0,3,1,false,z,true,false,0.0-2.0-0.37-0.338-3.338,1,0,0,81,false,stim,false,2,787,2,0,2,87003,WMM1,846536,false,false,1114,image-keyboard-response,5
true,10,1,3,0,false,q,true,false,0.0-2.0-0.37-0.339-3.339,1,0,0,90,false,stim,false,0,894,2,1,0,87003,WMM1,848965,false,false,1117,image-keyboard-response,6
true,10,0,3,0,true,q,false,true,0.0-2.0-0.37-0.340-3.340,1,0,0,81,false,stim,false,2,1763,2,0,1,87003,WMM1,852272,false,false,1120,image-keyboard-response,7
true,10,2,3,0,false,q,true,false,0.0-2.0-0.37-0.341-3.341,1,0,0,68,false,stim,false,0,699,2,1,0,87003,WMM1,854509,false,false,1123,image-keyboard-response,8
true,10,2,3,1,false,z,false,false,0.0-2.0-0.38-0.342-3.342,1,0,0,68,false,stim,true,2,361,2,0,2,87003,WMM1,856401,false,false,1126,image-keyboard-response,9
true,10,1,3,0,false,q,true,false,0.0-2.0-0.38-0.343-3.343,1,0,0,90,false,stim,false,0,487,2,1,0,87003,WMM1,858426,false,false,1129,image-keyboard-response,10
true,10,0,3,0,true,q,false,true,0.0-2.0-0.38-0.344-3.344,1,0,0,81,false,stim,false,0,1274,2,1,0,87003,WMM1,861233,false,false,1132,image-keyboard-response,11
true,10,1,3,1,true,z,false,true,0.0-2.0-0.38-0.345-3.345,1,0,0,90,false,stim,false,2,602,2,0,2,87003,WMM1,863363,false,false,1135,image-keyboard-response,12
true,10,0,3,0,true,q,false,true,0.0-2.0-0.38-0.346-3.346,1,0,0,81,false,stim,false,0,463,2,1,0,87003,WMM1,865364,false,false,1138,image-keyboard-response,13
true,10,1,3,0,false,q,true,false,0.0-2.0-0.38-0.347-3.347,1,0,0,90,false,stim,false,2,391,2,0,1,87003,WMM1,867291,false,false,1141,image-keyboard-response,14
true,10,0,3,0,true,q,false,true,0.0-2.0-0.38-0.348-3.348,1,0,0,81,false,stim,false,2,323,2,0,1,87003,WMM1,869134,false,false,1144,image-keyboard-response,15
true,10,1,3,1,true,z,false,true,0.0-2.0-0.38-0.349-3.349,1,0,0,90,false,stim,false,2,349,2,0,2,87003,WMM1,871019,false,false,1147,image-keyboard-response,16
true,10,0,3,0,true,q,false,true,0.0-2.0-0.38-0.350-3.350,1,0,0,81,false,stim,false,2,390,2,0,1,87003,WMM1,872940,false,false,1150,image-keyboard-response,17
true,10,0,3,0,true,q,false,true,0.0-2.0-0.39-0.351-3.351,1,0,0,81,false,stim,false,0,372,2,1,0,87003,WMM1,874842,false,false,1153,image-keyboard-response,18
true,10,0,3,0,true,q,false,true,0.0-2.0-0.39-0.352-3.352,1,0,0,81,false,stim,false,2,1081,2,0,1,87003,WMM1,877451,false,false,1156,image-keyboard-response,19
true,10,1,3,1,true,z,false,true,0.0-2.0-0.39-0.353-3.353,1,0,0,90,false,stim,false,2,335,2,0,2,87003,WMM1,879325,false,false,1159,image-keyboard-response,20
true,10,0,3,0,true,q,false,true,0.0-2.0-0.39-0.354-3.354,1,0,0,81,false,stim,false,0,632,2,0,0,87003,WMM1,881501,false,false,1162,image-keyboard-response,21
true,10,0,3,0,true,q,false,true,0.0-2.0-0.39-0.355-3.355,1,0,0,81,false,stim,false,2,638,2,0,1,87003,WMM1,883669,false,false,1165,image-keyboard-response,22
true,10,0,3,0,true,q,false,true,0.0-2.0-0.39-0.356-3.356,1,0,0,81,false,stim,false,0,512,2,0,0,87003,WMM1,885722,false,false,1168,image-keyboard-response,23
true,10,1,3,1,true,z,false,true,0.0-2.0-0.39-0.357-3.357,1,0,0,90,false,stim,false,2,479,2,1,2,87003,WMM1,887739,false,false,1171,image-keyboard-response,24
true,10,1,3,0,false,q,true,false,0.0-2.0-0.39-0.358-3.358,1,0,0,90,false,stim,false,2,517,2,0,1,87003,WMM1,889797,false,false,1174,image-keyboard-response,25
true,10,1,3,1,true,z,false,true,0.0-2.0-0.39-0.359-3.359,1,0,0,90,false,stim,false,2,559,2,1,2,87003,WMM1,891890,false,false,1177,image-keyboard-response,26
true,10,1,3,0,false,q,true,false,0.0-2.0-0.40-0.360-3.360,1,0,0,90,false,stim,false,2,711,2,0,1,87003,WMM1,894142,false,false,1180,image-keyboard-response,27
true,10,1,3,1,true,z,false,true,0.0-2.0-0.40-0.361-3.361,1,0,0,90,false,stim,false,2,767,2,1,2,87003,WMM1,896439,false,false,1183,image-keyboard-response,28
true,10,0,3,0,true,q,false,true,0.0-2.0-0.40-0.362-3.362,1,0,0,81,false,stim,false,2,428,2,0,1,87003,WMM1,898399,false,false,1186,image-keyboard-response,29
true,10,1,3,1,true,z,false,false,0.0-2.0-0.40-0.363-3.363,1,0,0,90,false,stim,false,2,566,2,1,2,87003,WMM1,900496,false,true,1189,image-keyboard-response,30
true,11,2,3,1,false,z,true,false,0.0-2.0-0.40-0.364-3.364,0,0,1,68,true,stim,false,1,951,2,1,2,87003,WMM1,902982,false,false,1192,image-keyboard-response,1
true,11,0,3,2,false,d,false,false,0.0-2.0-0.40-0.365-3.365,0,0,1,81,false,stim,true,0,658,2,0,1,87003,WMM1,905170,false,false,1195,image-keyboard-response,2
true,11,0,3,1,false,z,false,true,0.0-2.0-0.40-0.366-3.366,0,0,1,81,false,stim,true,0,710,2,0,0,87003,WMM1,907410,false,true,1198,image-keyboard-response,3
true,11,0,3,1,false,z,false,false,0.0-2.0-0.40-0.367-3.367,0,0,1,81,false,stim,true,0,528,2,0,0,87003,WMM1,909482,false,false,1201,image-keyboard-response,4
true,11,1,3,1,true,z,false,true,0.0-2.0-0.40-0.368-3.368,0,0,1,90,false,stim,false,0,1393,2,0,0,87003,WMM1,912404,false,false,1204,image-keyboard-response,5
true,11,1,3,1,true,z,false,true,0.0-2.0-0.41-0.369-3.369,0,0,1,90,false,stim,false,1,584,2,1,2,87003,WMM1,914515,false,false,1207,image-keyboard-response,6
true,11,1,3,1,true,z,false,true,0.0-2.0-0.41-0.370-3.370,0,0,1,90,false,stim,false,1,633,2,1,2,87003,WMM1,916674,false,false,1210,image-keyboard-response,7
true,11,2,3,2,true,d,false,true,0.0-2.0-0.41-0.371-3.371,0,0,1,68,false,stim,false,0,988,2,0,1,87003,WMM1,919190,false,false,1213,image-keyboard-response,8
true,11,1,3,1,true,z,false,false,0.0-2.0-0.41-0.372-3.372,0,0,1,90,false,stim,false,1,731,2,1,2,87003,WMM1,921451,false,true,1216,image-keyboard-response,9
true,11,1,3,2,false,d,true,false,0.0-2.0-0.41-0.373-3.373,0,0,1,90,false,stim,false,0,497,2,0,1,87003,WMM1,923475,false,false,1219,image-keyboard-response,10
true,11,2,3,2,true,d,false,true,0.0-2.0-0.41-0.374-3.374,0,0,1,68,false,stim,false,0,431,2,0,1,87003,WMM1,925452,false,false,1222,image-keyboard-response,11
true,11,1,3,1,true,z,false,true,0.0-2.0-0.41-0.375-3.375,0,0,1,90,false,stim,false,0,622,2,0,0,87003,WMM1,927613,false,false,1225,image-keyboard-response,12
true,11,1,3,1,true,z,false,true,0.0-2.0-0.41-0.376-3.376,0,0,1,90,false,stim,false,0,496,2,0,0,87003,WMM1,929636,false,false,1228,image-keyboard-response,13
true,11,1,3,1,true,z,false,true,0.0-2.0-0.41-0.377-3.377,0,0,1,90,false,stim,false,0,460,2,0,0,87003,WMM1,931643,false,false,1231,image-keyboard-response,14
true,11,1,3,1,true,z,false,true,0.0-2.0-0.42-0.378-3.378,0,0,1,90,false,stim,false,0,445,2,0,0,87003,WMM1,933625,false,false,1234,image-keyboard-response,15
true,11,2,3,1,false,z,true,false,0.0-2.0-0.42-0.379-3.379,0,0,1,68,false,stim,false,1,541,2,1,2,87003,WMM1,935692,false,false,1237,image-keyboard-response,16
true,11,1,3,1,true,z,false,true,0.0-2.0-0.42-0.380-3.380,0,0,1,90,false,stim,false,0,723,2,0,0,87003,WMM1,937945,false,false,1240,image-keyboard-response,17
true,11,0,3,1,false,z,true,false,0.0-2.0-0.42-0.381-3.381,0,0,1,81,false,stim,false,1,373,2,1,2,87003,WMM1,939863,false,false,1243,image-keyboard-response,18
true,11,2,3,2,true,d,false,true,0.0-2.0-0.42-0.382-3.382,0,0,1,68,false,stim,false,0,546,2,0,1,87003,WMM1,941938,false,false,1246,image-keyboard-response,19
true,11,2,3,2,true,d,false,true,0.0-2.0-0.42-0.383-3.383,0,0,1,68,false,stim,false,0,598,2,0,1,87003,WMM1,944069,false,false,1249,image-keyboard-response,20
true,11,2,3,2,true,d,false,true,0.0-2.0-0.42-0.384-3.384,0,0,1,68,false,stim,false,0,530,2,0,1,87003,WMM1,946141,false,false,1252,image-keyboard-response,21
true,11,1,3,1,true,z,false,true,0.0-2.0-0.42-0.385-3.385,0,0,1,90,false,stim,false,0,693,2,0,0,87003,WMM1,948383,false,false,1255,image-keyboard-response,22
true,11,1,3,1,true,z,false,true,0.0-2.0-0.42-0.386-3.386,0,0,1,90,false,stim,false,1,502,2,1,2,87003,WMM1,950413,false,false,1258,image-keyboard-response,23
true,11,2,3,2,true,d,false,true,0.0-2.0-0.43-0.387-3.387,0,0,1,68,false,stim,false,0,770,2,0,1,87003,WMM1,952721,false,false,1261,image-keyboard-response,24
true,11,1,3,1,true,z,false,true,0.0-2.0-0.43-0.388-3.388,0,0,1,90,false,stim,false,0,340,2,0,0,87003,WMM1,954602,false,false,1264,image-keyboard-response,25
true,11,1,3,1,true,z,false,true,0.0-2.0-0.43-0.389-3.389,0,0,1,90,false,stim,false,0,365,2,0,0,87003,WMM1,956505,false,false,1267,image-keyboard-response,26
true,11,2,3,1,false,z,true,false,0.0-2.0-0.43-0.390-3.390,0,0,1,68,false,stim,false,1,534,2,1,2,87003,WMM1,958594,false,false,1270,image-keyboard-response,27
true,11,1,3,2,false,d,true,false,0.0-2.0-0.43-0.391-3.391,0,0,1,90,false,stim,false,0,554,2,0,1,87003,WMM1,960696,false,false,1273,image-keyboard-response,28
true,11,1,3,1,true,z,false,true,0.0-2.0-0.43-0.392-3.392,0,0,1,90,false,stim,false,0,730,2,0,0,87003,WMM1,962970,false,false,1276,image-keyboard-response,29
true,11,1,3,2,false,d,true,false,0.0-2.0-0.43-0.393-3.393,0,0,1,90,false,stim,false,0,400,2,0,1,87003,WMM1,964922,false,false,1279,image-keyboard-response,30
true,11,1,3,1,true,z,false,true,0.0-2.0-0.43-0.394-3.394,0,0,1,90,false,stim,false,1,539,2,1,2,87003,WMM1,967001,false,false,1282,image-keyboard-response,31
true,11,1,3,1,true,z,false,true,0.0-2.0-0.43-0.395-3.395,0,0,1,90,false,stim,false,1,483,2,1,2,87003,WMM1,969026,false,false,1285,image-keyboard-response,32
true,11,2,3,2,true,d,false,true,0.0-2.0-0.44-0.396-3.396,0,0,1,68,false,stim,false,0,527,2,0,1,87003,WMM1,971087,false,false,1288,image-keyboard-response,33
true,11,2,3,1,false,z,true,false,0.0-2.0-0.44-0.397-3.397,0,0,1,68,false,stim,false,1,625,2,1,2,87003,WMM1,973246,false,false,1291,image-keyboard-response,34
true,11,2,3,2,true,d,false,true,0.0-2.0-0.44-0.398-3.398,0,0,1,68,false,stim,false,0,448,2,0,1,87003,WMM1,975229,false,false,1294,image-keyboard-response,35
true,11,1,3,1,true,z,false,true,0.0-2.0-0.44-0.399-3.399,0,0,1,90,false,stim,false,0,525,2,0,0,87003,WMM1,977307,false,false,1297,image-keyboard-response,36
true,11,1,3,1,true,z,false,false,0.0-2.0-0.44-0.400-3.400,0,0,1,90,false,stim,false,1,684,2,1,2,87003,WMM1,979525,false,true,1300,image-keyboard-response,37
true,11,1,3,1,true,z,false,true,0.0-2.0-0.44-0.401-3.401,0,0,1,90,false,stim,false,1,524,2,1,2,87003,WMM1,981606,false,false,1303,image-keyboard-response,38
true,11,2,3,2,true,d,false,true,0.0-2.0-0.44-0.402-3.402,0,0,1,68,false,stim,false,0,405,2,0,1,87003,WMM1,983556,false,false,1306,image-keyboard-response,39
true,11,1,3,1,true,z,false,true,0.0-2.0-0.44-0.403-3.403,0,0,1,90,false,stim,false,0,784,2,0,0,87003,WMM1,985873,false,false,1309,image-keyboard-response,40
true,11,1,3,1,true,z,false,true,0.0-2.0-0.44-0.404-3.404,0,0,1,90,false,stim,false,0,500,2,0,0,87003,WMM1,987910,false,false,1312,image-keyboard-response,41
true,11,1,3,1,true,z,false,true,0.0-2.0-0.45-0.405-3.405,0,0,1,90,false,stim,false,0,561,2,0,0,87003,WMM1,990011,false,false,1315,image-keyboard-response,42
true,11,1,3,1,true,z,false,true,0.0-2.0-0.45-0.406-3.406,0,0,1,90,false,stim,false,0,505,2,0,0,87003,WMM1,992054,false,false,1318,image-keyboard-response,43
true,11,1,3,1,true,z,false,true,0.0-2.0-0.45-0.407-3.407,0,0,1,90,false,stim,false,0,369,2,0,0,87003,WMM1,993960,false,false,1321,image-keyboard-response,44
true,11,2,3,2,true,d,false,false,0.0-2.0-0.45-0.408-3.408,0,0,1,68,false,stim,false,0,849,2,0,1,87003,WMM1,996339,false,true,1324,image-keyboard-response,45
true,11,1,3,1,true,z,false,true,0.0-2.0-0.45-0.409-3.409,0,0,1,90,false,stim,false,1,647,2,0,2,87003,WMM1,998507,false,false,1327,image-keyboard-response,46
true,11,2,3,2,true,d,false,true,0.0-2.0-0.45-0.410-3.410,0,0,1,68,false,stim,false,0,456,2,0,1,87003,WMM1,1000490,false,false,1330,image-keyboard-response,47
true,11,1,3,1,true,z,false,true,0.0-2.0-0.45-0.411-3.411,0,0,1,90,false,stim,false,1,478,2,0,2,87003,WMM1,1002500,false,false,1333,image-keyboard-response,48
true,12,1,1,0,false,q,true,false,0.0-2.0-0.45-0.412-3.412,0,0,0,90,true,stim,false,2,452,2,0,1,87003,WMM1,1004484,false,false,1336,image-keyboard-response,1
true,12,1,1,2,false,d,false,false,0.0-2.0-0.45-0.413-3.413,0,0,0,90,false,stim,true,1,516,2,0,2,87003,WMM1,1006524,false,false,1339,image-keyboard-response,2
true,12,1,1,2,false,d,false,false,0.0-2.0-0.46-0.414-3.414,0,0,0,90,false,stim,true,1,778,2,0,2,87003,WMM1,1008828,false,false,1342,image-keyboard-response,3
true,12,0,1,2,false,d,true,false,0.0-2.0-0.46-0.415-3.415,0,0,0,81,false,stim,false,1,494,2,0,2,87003,WMM1,1010857,false,false,1345,image-keyboard-response,4
true,12,2,1,0,false,q,false,false,0.0-2.0-0.46-0.416-3.416,0,0,0,68,false,stim,true,2,559,2,0,1,87003,WMM1,1012940,false,false,1348,image-keyboard-response,5
true,12,1,1,0,false,q,true,false,0.0-2.0-0.46-0.417-3.417,0,0,0,90,false,stim,false,2,631,2,0,1,87003,WMM1,1015113,false,false,1351,image-keyboard-response,6
true,12,1,1,0,false,q,false,true,0.0-2.0-0.46-0.418-3.418,0,0,0,90,false,stim,true,1,726,2,0,0,87003,WMM1,1017369,false,true,1354,image-keyboard-response,7
true,12,2,1,2,true,d,false,true,0.0-2.0-0.46-0.419-3.419,0,0,0,68,false,stim,false,1,744,2,0,2,87003,WMM1,1019646,false,false,1357,image-keyboard-response,8
true,12,1,1,0,false,q,false,false,0.0-2.0-0.46-0.420-3.420,0,0,0,90,false,stim,true,1,561,2,0,0,87003,WMM1,1021723,false,false,1360,image-keyboard-response,9
true,12,0,1,0,true,q,false,true,0.0-2.0-0.46-0.421-3.421,0,0,0,81,false,stim,false,2,408,2,0,1,87003,WMM1,1023669,false,false,1363,image-keyboard-response,10
true,12,1,1,0,false,q,false,false,0.0-2.0-0.46-0.422-3.422,0,0,0,90,false,stim,true,1,739,2,0,0,87003,WMM1,1025929,false,false,1366,image-keyboard-response,11
true,12,0,1,0,true,q,false,true,0.0-2.0-0.47-0.423-3.423,0,0,0,81,false,stim,false,1,619,2,0,0,87003,WMM1,1028080,false,false,1369,image-keyboard-response,12
true,12,2,1,2,true,d,false,true,0.0-2.0-0.47-0.424-3.424,0,0,0,68,false,stim,false,1,556,2,0,2,87003,WMM1,1030178,false,false,1372,image-keyboard-response,13
true,12,2,1,2,true,d,false,true,0.0-2.0-0.47-0.425-3.425,0,0,0,68,false,stim,false,1,543,2,0,2,87003,WMM1,1032266,false,false,1375,image-keyboard-response,14
true,12,0,1,0,true,q,false,true,0.0-2.0-0.47-0.426-3.426,0,0,0,81,false,stim,false,2,464,2,0,1,87003,WMM1,1034266,false,false,1378,image-keyboard-response,15
true,12,0,1,0,true,q,false,true,0.0-2.0-0.47-0.427-3.427,0,0,0,81,false,stim,false,2,423,2,0,1,87003,WMM1,1036224,false,false,1381,image-keyboard-response,16
true,12,0,1,0,true,q,false,true,0.0-2.0-0.47-0.428-3.428,0,0,0,81,false,stim,false,2,392,2,0,1,87003,WMM1,1038152,false,false,1384,image-keyboard-response,17
true,12,0,1,0,true,q,false,false,0.0-2.0-0.47-0.429-3.429,0,0,0,81,false,stim,false,1,474,2,0,0,87003,WMM1,1040156,false,true,1387,image-keyboard-response,18
true,12,2,1,2,true,d,false,true,0.0-2.0-0.47-0.430-3.430,0,0,0,68,false,stim,false,1,647,2,0,2,87003,WMM1,1042319,false,false,1390,image-keyboard-response,19
true,12,0,1,0,true,q,false,true,0.0-2.0-0.47-0.431-3.431,0,0,0,81,false,stim,false,1,418,2,0,0,87003,WMM1,1044270,false,false,1393,image-keyboard-response,20
true,12,0,1,0,true,q,false,true,0.0-2.0-0.48-0.432-3.432,0,0,0,81,false,stim,false,1,438,2,0,0,87003,WMM1,1046260,false,false,1396,image-keyboard-response,21
true,12,0,1,0,true,q,false,true,0.0-2.0-0.48-0.433-3.433,0,0,0,81,false,stim,false,1,550,2,0,0,87003,WMM1,1048353,false,false,1399,image-keyboard-response,22
true,12,2,1,2,true,d,false,true,0.0-2.0-0.48-0.434-3.434,0,0,0,68,false,stim,false,1,675,2,0,2,87003,WMM1,1050578,false,false,1402,image-keyboard-response,23
true,12,2,1,2,true,d,false,true,0.0-2.0-0.48-0.435-3.435,0,0,0,68,false,stim,false,1,548,2,0,2,87003,WMM1,1052649,false,false,1405,image-keyboard-response,24
true,12,0,1,0,true,q,false,false,0.0-2.0-0.48-0.436-3.436,0,0,0,81,false,stim,false,2,483,2,0,1,87003,WMM1,1054665,false,true,1408,image-keyboard-response,25
true,12,0,1,0,true,q,false,true,0.0-2.0-0.48-0.437-3.437,0,0,0,81,false,stim,false,2,379,2,0,1,87003,WMM1,1056581,false,false,1411,image-keyboard-response,26
true,12,0,1,0,true,q,false,true,0.0-2.0-0.48-0.438-3.438,0,0,0,81,false,stim,false,1,449,2,0,0,87003,WMM1,1058572,false,false,1414,image-keyboard-response,27
true,12,0,1,0,true,q,false,true,0.0-2.0-0.48-0.439-3.439,0,0,0,81,false,stim,false,2,448,2,0,1,87003,WMM1,1060549,false,false,1417,image-keyboard-response,28
true,12,2,1,2,true,d,false,true,0.0-2.0-0.48-0.440-3.440,0,0,0,68,false,stim,false,1,543,2,0,2,87003,WMM1,1062623,false,false,1420,image-keyboard-response,29
true,12,0,1,0,true,q,false,true,0.0-2.0-0.49-0.441-3.441,0,0,0,81,false,stim,false,1,564,2,0,0,87003,WMM1,1064724,false,false,1423,image-keyboard-response,30
true,13,0,4,2,false,d,false,false,0.0-2.0-0.49-0.442-3.442,0,0,0,81,true,stim,true,0,449,2,0,0,87003,WMM1,1066701,false,false,1426,image-keyboard-response,1
true,13,0,4,1,false,z,false,false,0.0-2.0-0.49-0.443-3.443,0,0,0,81,false,stim,true,0,582,2,0,1,87003,WMM1,1068814,false,false,1429,image-keyboard-response,2
true,13,1,4,1,true,z,false,true,0.0-2.0-0.49-0.444-3.444,0,0,0,90,false,stim,false,0,762,2,0,1,87003,WMM1,1071114,false,false,1432,image-keyboard-response,3
true,13,2,4,0,false,q,false,false,0.0-2.0-0.49-0.445-3.445,0,0,0,68,false,stim,true,2,644,2,0,2,87003,WMM1,1073297,false,false,1435,image-keyboard-response,4
true,13,1,4,2,false,d,true,false,0.0-2.0-0.49-0.446-3.446,0,0,0,90,false,stim,false,0,364,2,0,0,87003,WMM1,1075198,false,false,1438,image-keyboard-response,5
true,13,1,4,0,false,q,true,false,0.0-2.0-0.49-0.447-3.447,0,0,0,90,false,stim,false,2,1584,2,0,2,87003,WMM1,1078316,false,false,1441,image-keyboard-response,6
true,13,1,4,1,true,z,false,true,0.0-2.0-0.49-0.448-3.448,0,0,0,90,false,stim,false,0,354,2,0,1,87003,WMM1,1080207,false,false,1444,image-keyboard-response,7
true,13,0,4,0,true,q,false,true,0.0-2.0-0.49-0.449-3.449,0,0,0,81,false,stim,false,2,695,2,0,2,87003,WMM1,1082438,false,false,1447,image-keyboard-response,8
true,13,1,4,1,true,z,false,true,0.0-2.0-0.50-0.450-3.450,0,0,0,90,false,stim,false,0,1217,2,0,1,87003,WMM1,1085190,false,false,1450,image-keyboard-response,9
true,13,1,4,1,true,z,false,true,0.0-2.0-0.50-0.451-3.451,0,0,0,90,false,stim,false,0,648,2,0,1,87003,WMM1,1087380,false,false,1453,image-keyboard-response,10
true,13,0,4,0,true,q,false,true,0.0-2.0-0.50-0.452-3.452,0,0,0,81,false,stim,false,2,481,2,0,2,87003,WMM1,1089393,false,false,1456,image-keyboard-response,11
true,13,2,4,2,true,d,false,true,0.0-2.0-0.50-0.453-3.453,0,0,0,68,false,stim,false,0,1232,2,0,0,87003,WMM1,1092163,false,false,1459,image-keyboard-response,12
true,13,0,4,0,true,q,false,false,0.0-2.0-0.50-0.454-3.454,0,0,0,81,false,stim,false,2,860,2,0,2,87003,WMM1,1094553,false,true,1462,image-keyboard-response,13
true,13,1,4,1,true,z,false,true,0.0-2.0-0.50-0.455-3.455,0,0,0,90,false,stim,false,0,393,2,0,1,87003,WMM1,1096488,false,false,1465,image-keyboard-response,14
true,13,0,4,0,true,q,false,true,0.0-2.0-0.50-0.456-3.456,0,0,0,81,false,stim,false,2,396,2,0,2,87003,WMM1,1098428,false,false,1468,image-keyboard-response,15
true,13,2,4,2,true,d,false,true,0.0-2.0-0.50-0.457-3.457,0,0,0,68,false,stim,false,0,391,2,0,0,87003,WMM1,1100363,false,false,1471,image-keyboard-response,16
true,13,2,4,2,true,d,false,true,0.0-2.0-0.50-0.458-3.458,0,0,0,68,false,stim,false,0,638,2,0,0,87003,WMM1,1102529,false,false,1474,image-keyboard-response,17
true,13,2,4,2,true,d,false,true,0.0-2.0-0.51-0.459-3.459,0,0,0,68,false,stim,false,0,520,2,0,0,87003,WMM1,1104593,false,false,1477,image-keyboard-response,18
true,13,0,4,0,true,q,false,true,0.0-2.0-0.51-0.460-3.460,0,0,0,81,false,stim,false,2,1200,2,0,2,87003,WMM1,1107333,false,false,1480,image-keyboard-response,19
true,13,0,4,0,true,q,false,true,0.0-2.0-0.51-0.461-3.461,0,0,0,81,false,stim,false,2,519,2,0,2,87003,WMM1,1109391,false,false,1483,image-keyboard-response,20
true,13,0,4,0,true,q,false,true,0.0-2.0-0.51-0.462-3.462,0,0,0,81,false,stim,false,2,470,2,1,2,87003,WMM1,1111402,false,false,1486,image-keyboard-response,21
true,13,2,4,2,true,d,false,true,0.0-2.0-0.51-0.463-3.463,0,0,0,68,false,stim,false,0,779,2,1,0,87003,WMM1,1113711,false,false,1489,image-keyboard-response,22
true,13,1,4,1,true,z,false,true,0.0-2.0-0.51-0.464-3.464,0,0,0,90,false,stim,false,0,381,2,1,1,87003,WMM1,1115635,false,false,1492,image-keyboard-response,23
true,13,1,4,1,true,z,false,false,0.0-2.0-0.51-0.465-3.465,0,0,0,90,false,stim,false,0,440,2,1,1,87003,WMM1,1117611,false,true,1495,image-keyboard-response,24
true,13,2,4,2,true,d,false,true,0.0-2.0-0.51-0.466-3.466,0,0,0,68,false,stim,false,0,796,2,1,0,87003,WMM1,1119948,false,false,1498,image-keyboard-response,25
true,13,1,4,1,true,z,false,true,0.0-2.0-0.51-0.467-3.467,0,0,0,90,false,stim,false,0,367,2,1,1,87003,WMM1,1121866,false,false,1501,image-keyboard-response,26
true,13,1,4,1,true,z,false,true,0.0-2.0-0.52-0.468-3.468,0,0,0,90,false,stim,false,0,505,2,1,1,87003,WMM1,1123898,false,false,1504,image-keyboard-response,27
true,13,0,4,0,true,q,false,true,0.0-2.0-0.52-0.469-3.469,0,0,0,81,false,stim,false,2,605,2,1,2,87003,WMM1,1126028,false,false,1507,image-keyboard-response,28
true,13,0,4,1,false,z,false,false,0.0-2.0-0.52-0.470-3.470,0,0,0,81,false,stim,true,0,399,2,1,1,87003,WMM1,1127963,false,false,1510,image-keyboard-response,29
true,13,2,4,2,true,d,false,true,0.0-2.0-0.52-0.471-3.471,0,0,0,68,false,stim,false,0,454,2,1,0,87003,WMM1,1129957,false,false,1513,image-keyboard-response,30
true,14,2,0,0,false,q,true,true,0.0-2.0-0.52-0.472-3.472,1,1,1,68,true,stim,false,0,1304,2,1,2,87003,WMM1,1254769,false,true,1636,image-keyboard-response,1
true,14,1,0,1,true,z,false,true,0.0-2.0-0.52-0.473-3.473,1,1,1,90,false,stim,false,1,716,2,1,1,87003,WMM1,1257025,false,false,1639,image-keyboard-response,2
true,14,0,0,2,false,d,true,false,0.0-2.0-0.52-0.474-3.474,1,1,1,81,false,stim,false,2,556,2,1,0,87003,WMM1,1259112,false,false,1642,image-keyboard-response,3
true,14,2,0,0,false,q,true,false,0.0-2.0-0.52-0.475-3.475,1,1,1,68,false,stim,false,0,635,2,1,2,87003,WMM1,1261272,false,false,1645,image-keyboard-response,4
true,14,0,0,2,false,d,true,true,0.0-2.0-0.52-0.476-3.476,1,1,1,81,false,stim,false,2,733,2,1,0,87003,WMM1,1263534,false,true,1648,image-keyboard-response,5
true,14,2,0,0,false,q,true,false,0.0-2.0-0.53-0.477-3.477,1,1,1,68,false,stim,false,0,689,2,1,2,87003,WMM1,1265753,false,false,1651,image-keyboard-response,6
true,14,0,0,2,false,d,true,false,0.0-2.0-0.53-0.478-3.478,1,1,1,81,false,stim,false,2,848,2,1,0,87003,WMM1,1268129,false,false,1654,image-keyboard-response,7
true,14,0,0,2,false,d,true,false,0.0-2.0-0.53-0.479-3.479,1,1,1,81,false,stim,false,2,702,2,1,0,87003,WMM1,1270364,false,false,1657,image-keyboard-response,8
true,14,1,0,0,false,q,true,true,0.0-2.0-0.53-0.480-3.480,1,1,1,90,false,stim,false,0,547,2,1,2,87003,WMM1,1272439,false,true,1660,image-keyboard-response,9
true,14,2,0,1,false,z,true,false,0.0-2.0-0.53-0.481-3.481,1,1,1,68,false,stim,false,1,525,2,1,1,87003,WMM1,1274499,false,false,1663,image-keyboard-response,10
true,14,1,0,1,true,z,false,true,0.0-2.0-0.53-0.482-3.482,1,1,1,90,false,stim,false,1,694,2,1,1,87003,WMM1,1276733,false,false,1666,image-keyboard-response,11
true,14,1,0,0,false,q,true,false,0.0-2.0-0.53-0.483-3.483,1,1,1,90,false,stim,false,0,673,2,1,2,87003,WMM1,1278943,false,false,1669,image-keyboard-response,12
true,14,1,0,2,false,d,true,false,0.0-2.0-0.53-0.484-3.484,1,1,1,90,false,stim,false,2,1165,2,1,0,87003,WMM1,1281632,false,false,1672,image-keyboard-response,13
true,14,1,0,1,true,z,false,true,0.0-2.0-0.53-0.485-3.485,1,1,1,90,false,stim,false,1,710,2,1,1,87003,WMM1,1283874,false,false,1675,image-keyboard-response,14
true,14,1,0,1,true,z,false,true,0.0-2.0-0.54-0.486-3.486,1,1,1,90,false,stim,false,1,601,2,1,1,87003,WMM1,1286012,false,false,1678,image-keyboard-response,15
true,14,0,0,2,false,d,true,false,0.0-2.0-0.54-0.487-3.487,1,1,1,81,false,stim,false,2,692,2,1,0,87003,WMM1,1288234,false,false,1681,image-keyboard-response,16
true,14,2,0,0,false,q,true,false,0.0-2.0-0.54-0.488-3.488,1,1,1,68,false,stim,false,0,1025,2,1,2,87003,WMM1,1290782,false,false,1684,image-keyboard-response,17
true,14,1,0,0,false,q,true,false,0.0-2.0-0.54-0.489-3.489,1,1,1,90,false,stim,false,0,726,2,1,2,87003,WMM1,1293032,false,false,1687,image-keyboard-response,18
true,14,2,0,2,true,d,false,true,0.0-2.0-0.54-0.490-3.490,1,1,1,68,false,stim,false,2,777,2,1,0,87003,WMM1,1295347,false,false,1690,image-keyboard-response,19
true,14,1,0,1,true,z,false,false,0.0-2.0-0.54-0.491-3.491,1,1,1,90,false,stim,false,1,602,2,1,1,87003,WMM1,1297486,false,true,1693,image-keyboard-response,20
true,14,0,0,0,true,q,false,false,0.0-2.0-0.54-0.492-3.492,1,1,1,81,false,stim,false,0,397,2,1,2,87003,WMM1,1299430,false,true,1696,image-keyboard-response,21
true,14,2,0,2,true,d,false,true,0.0-2.0-0.54-0.493-3.493,1,1,1,68,false,stim,false,2,735,2,1,0,87003,WMM1,1301716,false,false,1699,image-keyboard-response,22
true,14,1,0,1,true,z,false,true,0.0-2.0-0.54-0.494-3.494,1,1,1,90,false,stim,false,1,365,2,1,1,87003,WMM1,1303670,false,false,1702,image-keyboard-response,23
true,14,1,0,1,true,z,false,true,0.0-2.0-0.55-0.495-3.495,1,1,1,90,false,stim,false,1,529,2,1,1,87003,WMM1,1305739,false,false,1705,image-keyboard-response,24
true,14,2,0,2,true,d,false,true,0.0-2.0-0.55-0.496-3.496,1,1,1,68,false,stim,false,2,383,2,1,0,87003,WMM1,1307674,false,false,1708,image-keyboard-response,25
true,14,0,0,0,true,q,false,true,0.0-2.0-0.55-0.497-3.497,1,1,1,81,false,stim,false,0,1281,2,1,2,87003,WMM1,1310505,false,false,1711,image-keyboard-response,26
true,14,1,0,1,true,z,false,true,0.0-2.0-0.55-0.498-3.498,1,1,1,90,false,stim,false,1,641,2,0,1,87003,WMM1,1312695,false,false,1714,image-keyboard-response,27
true,14,0,0,0,true,q,false,false,0.0-2.0-0.55-0.499-3.499,1,1,1,81,false,stim,false,0,484,2,0,2,87003,WMM1,1314700,false,true,1717,image-keyboard-response,28
true,14,2,0,2,true,d,false,false,0.0-2.0-0.55-0.500-3.500,1,1,1,68,false,stim,false,2,733,2,0,0,87003,WMM1,1316967,false,true,1720,image-keyboard-response,29
true,14,2,0,2,true,d,false,true,0.0-2.0-0.55-0.501-3.501,1,1,1,68,false,stim,false,2,653,2,0,0,87003,WMM1,1319149,false,false,1723,image-keyboard-response,30
true,14,0,0,0,true,q,false,true,0.0-2.0-0.55-0.502-3.502,1,1,1,81,false,stim,false,0,596,2,0,2,87003,WMM1,1321274,false,false,1726,image-keyboard-response,31
true,14,1,0,1,true,z,false,true,0.0-2.0-0.55-0.503-3.503,1,1,1,90,false,stim,false,1,395,2,0,1,87003,WMM1,1323204,false,false,1729,image-keyboard-response,32
true,14,0,0,0,true,q,false,true,0.0-2.0-0.56-0.504-3.504,1,1,1,81,false,stim,false,0,647,2,0,2,87003,WMM1,1325388,false,false,1732,image-keyboard-response,33
true,14,2,0,2,true,d,false,true,0.0-2.0-0.56-0.505-3.505,1,1,1,68,false,stim,false,2,730,2,0,0,87003,WMM1,1327653,false,false,1735,image-keyboard-response,34
true,14,0,0,1,false,z,true,false,0.0-2.0-0.56-0.506-3.506,1,1,1,81,false,stim,false,1,608,2,0,1,87003,WMM1,1329792,false,false,1738,image-keyboard-response,35
true,14,1,0,1,true,z,false,true,0.0-2.0-0.56-0.507-3.507,1,1,1,90,false,stim,false,1,400,2,0,1,87003,WMM1,1331717,false,false,1741,image-keyboard-response,36
true,15,0,2,2,false,d,false,false,0.0-2.0-0.56-0.508-3.508,0,0,0,81,true,stim,true,0,500,2,0,2,87003,WMM1,1333751,false,false,1744,image-keyboard-response,1
true,15,2,2,0,false,q,false,false,0.0-2.0-0.56-0.509-3.509,0,0,0,68,false,stim,true,2,622,2,0,0,87003,WMM1,1335901,false,false,1747,image-keyboard-response,2
true,15,2,2,0,false,q,false,false,0.0-2.0-0.56-0.510-3.510,0,0,0,68,false,stim,true,2,623,2,0,0,87003,WMM1,1338051,false,false,1750,image-keyboard-response,3
true,15,1,2,2,false,d,false,false,0.0-2.0-0.56-0.511-3.511,0,0,0,90,false,stim,true,1,718,2,0,1,87003,WMM1,1340292,false,false,1753,image-keyboard-response,4
true,15,1,2,2,false,d,true,false,0.0-2.0-0.56-0.512-3.512,0,0,0,90,false,stim,false,0,877,2,0,2,87003,WMM1,1342702,false,false,1756,image-keyboard-response,5
true,15,0,2,0,true,q,false,true,0.0-2.0-0.57-0.513-3.513,0,0,0,81,false,stim,false,2,484,2,0,0,87003,WMM1,1344723,false,false,1759,image-keyboard-response,6
true,15,2,2,2,true,d,false,true,0.0-2.0-0.57-0.514-3.514,0,0,0,68,false,stim,false,1,502,2,0,1,87003,WMM1,1346755,false,false,1762,image-keyboard-response,7
true,15,0,2,0,true,q,false,true,0.0-2.0-0.57-0.515-3.515,0,0,0,81,false,stim,false,2,819,2,0,0,87003,WMM1,1349103,false,false,1765,image-keyboard-response,8
true,15,2,2,2,true,d,false,true,0.0-2.0-0.57-0.516-3.516,0,0,0,68,false,stim,false,0,819,2,0,2,87003,WMM1,1351451,false,false,1768,image-keyboard-response,9
true,15,2,2,2,true,d,false,true,0.0-2.0-0.57-0.517-3.517,0,0,0,68,false,stim,false,0,529,2,0,2,87003,WMM1,1353508,false,false,1771,image-keyboard-response,10
true,15,2,2,2,true,d,false,true,0.0-2.0-0.57-0.518-3.518,0,0,0,68,false,stim,false,0,378,2,0,2,87003,WMM1,1355422,false,false,1774,image-keyboard-response,11
true,15,2,2,2,true,d,false,false,0.0-2.0-0.57-0.519-3.519,0,0,0,68,false,stim,false,1,315,2,0,1,87003,WMM1,1357274,false,true,1777,image-keyboard-response,12
true,15,0,2,0,true,q,false,true,0.0-2.0-0.57-0.520-3.520,0,0,0,81,false,stim,false,2,513,2,0,0,87003,WMM1,1359321,false,false,1780,image-keyboard-response,13
true,15,2,2,2,true,d,false,true,0.0-2.0-0.57-0.521-3.521,0,0,0,68,false,stim,false,1,309,2,0,1,87003,WMM1,1361163,false,false,1783,image-keyboard-response,14
true,15,0,2,0,true,q,false,true,0.0-2.0-0.58-0.522-3.522,0,0,0,81,false,stim,false,2,426,2,0,0,87003,WMM1,1363115,false,false,1786,image-keyboard-response,15
true,15,2,2,2,true,d,false,true,0.0-2.0-0.58-0.523-3.523,0,0,0,68,false,stim,false,0,365,2,0,2,87003,WMM1,1365020,false,false,1789,image-keyboard-response,16
true,15,2,2,2,true,d,false,true,0.0-2.0-0.58-0.524-3.524,0,0,0,68,false,stim,false,0,429,2,0,2,87003,WMM1,1366977,false,false,1792,image-keyboard-response,17
true,15,0,2,0,true,q,false,true,0.0-2.0-0.58-0.525-3.525,0,0,0,81,false,stim,false,2,526,2,0,0,87003,WMM1,1369040,false,false,1795,image-keyboard-response,18
true,15,2,2,2,true,d,false,true,0.0-2.0-0.58-0.526-3.526,0,0,0,68,false,stim,false,1,419,2,0,1,87003,WMM1,1370999,false,false,1798,image-keyboard-response,19
true,15,2,2,2,true,d,false,true,0.0-2.0-0.58-0.527-3.527,0,0,0,68,false,stim,false,1,400,2,0,1,87003,WMM1,1372968,false,false,1801,image-keyboard-response,20
true,15,2,2,2,true,d,false,true,0.0-2.0-0.58-0.528-3.528,0,0,0,68,false,stim,false,1,384,2,0,1,87003,WMM1,1374894,false,false,1804,image-keyboard-response,21
true,15,2,2,2,true,d,false,true,0.0-2.0-0.58-0.529-3.529,0,0,0,68,false,stim,false,0,483,2,0,2,87003,WMM1,1376908,false,false,1807,image-keyboard-response,22
true,15,0,2,0,true,q,false,true,0.0-2.0-0.58-0.530-3.530,0,0,0,81,false,stim,false,2,518,2,0,0,87003,WMM1,1378957,false,false,1810,image-keyboard-response,23
true,15,2,2,2,true,d,false,true,0.0-2.0-0.59-0.531-3.531,0,0,0,68,false,stim,false,0,445,2,0,2,87003,WMM1,1380931,false,false,1813,image-keyboard-response,24
true,15,2,2,2,true,d,false,true,0.0-2.0-0.59-0.532-3.532,0,0,0,68,false,stim,false,0,397,2,0,2,87003,WMM1,1382864,false,false,1816,image-keyboard-response,25
true,15,0,2,0,true,q,false,false,0.0-2.0-0.59-0.533-3.533,0,0,0,81,false,stim,false,2,593,2,0,0,87003,WMM1,1384992,false,true,1819,image-keyboard-response,26
true,15,0,2,0,true,q,false,false,0.0-2.0-0.59-0.534-3.534,0,0,0,81,false,stim,false,2,504,2,0,0,87003,WMM1,1387033,false,true,1822,image-keyboard-response,27
true,15,2,2,2,true,d,false,true,0.0-2.0-0.59-0.535-3.535,0,0,0,68,false,stim,false,0,406,2,0,2,87003,WMM1,1388967,false,false,1825,image-keyboard-response,28
true,15,1,2,0,false,q,true,false,0.0-2.0-0.59-0.536-3.536,0,0,0,90,false,stim,false,2,678,2,0,0,87003,WMM1,1391171,false,false,1828,image-keyboard-response,29
true,15,2,2,2,true,d,false,true,0.0-2.0-0.59-0.537-3.537,0,0,0,68,false,stim,false,1,669,2,0,1,87003,WMM1,1393377,false,false,1831,image-keyboard-response,30
true,16,2,1,1,false,z,false,false,0.0-2.0-0.59-0.538-3.538,0,0,0,68,true,stim,true,2,421,2,0,1,87003,WMM1,1395326,false,false,1834,image-keyboard-response,1
true,16,2,1,1,false,z,false,false,0.0-2.0-0.59-0.539-3.539,0,0,0,68,false,stim,true,2,458,2,0,1,87003,WMM1,1397311,false,false,1837,image-keyboard-response,2
true,16,0,1,1,false,z,true,false,0.0-2.0-0.60-0.540-3.540,0,0,0,81,false,stim,false,2,868,2,0,2,87003,WMM1,1399703,false,false,1840,image-keyboard-response,3
true,16,2,1,2,true,d,false,true,0.0-2.0-0.60-0.541-3.541,0,0,0,68,false,stim,false,0,1138,2,0,0,87003,WMM1,1402371,false,false,1843,image-keyboard-response,4
true,16,2,1,2,true,d,false,true,0.0-2.0-0.60-0.542-3.542,0,0,0,68,false,stim,false,0,563,2,0,0,87003,WMM1,1404460,false,false,1846,image-keyboard-response,5
true,16,0,1,1,false,z,true,false,0.0-2.0-0.60-0.543-3.543,0,0,0,81,false,stim,false,2,711,2,0,1,87003,WMM1,1406705,false,false,1849,image-keyboard-response,6
true,16,1,1,1,true,z,false,true,0.0-2.0-0.60-0.544-3.544,0,0,0,90,false,stim,false,2,946,2,0,2,87003,WMM1,1409179,false,false,1852,image-keyboard-response,7
true,16,2,1,2,true,d,false,true,0.0-2.0-0.60-0.545-3.545,0,0,0,68,false,stim,false,0,504,2,0,0,87003,WMM1,1411210,false,false,1855,image-keyboard-response,8
true,16,1,1,1,true,z,false,true,0.0-2.0-0.60-0.546-3.546,0,0,0,90,false,stim,false,2,571,2,0,2,87003,WMM1,1413309,false,false,1858,image-keyboard-response,9
true,16,1,1,1,true,z,false,true,0.0-2.0-0.60-0.547-3.547,0,0,0,90,false,stim,false,2,395,2,0,1,87003,WMM1,1415230,false,false,1861,image-keyboard-response,10
true,16,1,1,1,true,z,false,true,0.0-2.0-0.60-0.548-3.548,0,0,0,90,false,stim,false,2,967,2,0,1,87003,WMM1,1417734,false,false,1864,image-keyboard-response,11
true,16,1,1,1,true,z,false,true,0.0-2.0-0.61-0.549-3.549,0,0,0,90,false,stim,false,2,462,2,0,2,87003,WMM1,1419726,false,false,1867,image-keyboard-response,12
true,16,1,1,1,true,z,false,true,0.0-2.0-0.61-0.550-3.550,0,0,0,90,false,stim,false,2,481,2,0,1,87003,WMM1,1421744,false,false,1870,image-keyboard-response,13
true,16,2,1,2,true,d,false,true,0.0-2.0-0.61-0.551-3.551,0,0,0,68,false,stim,false,0,615,2,0,0,87003,WMM1,1423894,false,false,1873,image-keyboard-response,14
true,16,1,1,2,false,d,true,false,0.0-2.0-0.61-0.552-3.552,0,0,0,90,false,stim,false,0,542,2,0,0,87003,WMM1,1425967,false,false,1876,image-keyboard-response,15
true,16,1,1,1,true,z,false,true,0.0-2.0-0.61-0.553-3.553,0,0,0,90,false,stim,false,2,351,2,0,1,87003,WMM1,1427841,false,false,1879,image-keyboard-response,16
true,16,2,1,2,true,d,false,true,0.0-2.0-0.61-0.554-3.554,0,0,0,68,false,stim,false,0,571,2,0,0,87003,WMM1,1429942,false,false,1882,image-keyboard-response,17
true,16,1,1,1,true,z,false,false,0.0-2.0-0.61-0.555-3.555,0,0,0,90,false,stim,false,2,626,2,0,1,87003,WMM1,1432086,false,true,1885,image-keyboard-response,18
true,16,1,1,1,true,z,false,true,0.0-2.0-0.61-0.556-3.556,0,0,0,90,false,stim,false,2,638,2,0,2,87003,WMM1,1434255,false,false,1888,image-keyboard-response,19
true,16,1,1,1,true,z,false,true,0.0-2.0-0.61-0.557-3.557,0,0,0,90,false,stim,false,2,654,2,0,2,87003,WMM1,1436436,false,false,1891,image-keyboard-response,20
true,16,1,1,1,true,z,false,true,0.0-2.0-0.62-0.558-3.558,0,0,0,90,false,stim,false,2,462,2,0,1,87003,WMM1,1438441,false,false,1894,image-keyboard-response,21
true,16,1,1,1,true,z,false,true,0.0-2.0-0.62-0.559-3.559,0,0,0,90,false,stim,false,2,496,2,0,1,87003,WMM1,1440474,false,false,1897,image-keyboard-response,22
true,16,1,1,1,true,z,false,true,0.0-2.0-0.62-0.560-3.560,0,0,0,90,false,stim,false,2,450,2,0,2,87003,WMM1,1442459,false,false,1900,image-keyboard-response,23
true,16,1,1,1,true,z,false,true,0.0-2.0-0.62-0.561-3.561,0,0,0,90,false,stim,false,2,493,2,0,2,87003,WMM1,1444533,false,false,1903,image-keyboard-response,24
true,16,2,1,2,true,d,false,true,0.0-2.0-0.62-0.562-3.562,0,0,0,68,false,stim,false,0,551,2,0,0,87003,WMM1,1446624,false,false,1906,image-keyboard-response,25
true,16,1,1,1,true,z,false,true,0.0-2.0-0.62-0.563-3.563,0,0,0,90,false,stim,false,2,522,2,0,1,87003,WMM1,1448694,false,false,1909,image-keyboard-response,26
true,16,2,1,2,true,d,false,true,0.0-2.0-0.62-0.564-3.564,0,0,0,68,false,stim,false,0,640,2,0,0,87003,WMM1,1450859,false,false,1912,image-keyboard-response,27
true,16,1,1,1,true,z,false,true,0.0-2.0-0.62-0.565-3.565,0,0,0,90,false,stim,false,2,610,2,0,2,87003,WMM1,1453012,false,false,1915,image-keyboard-response,28
true,16,2,1,2,true,d,false,true,0.0-2.0-0.62-0.566-3.566,0,0,0,68,false,stim,false,0,713,2,0,0,87003,WMM1,1455262,false,false,1918,image-keyboard-response,29
true,16,1,1,1,true,z,false,true,0.0-2.0-0.63-0.567-3.567,0,0,0,90,false,stim,false,2,617,2,0,2,87003,WMM1,1457413,false,false,1921,image-keyboard-response,30
true,16,2,1,2,true,d,false,false,0.0-2.0-0.63-0.568-3.568,0,0,0,68,false,stim,false,0,609,2,0,0,87003,WMM1,1459552,false,true,1924,image-keyboard-response,31
true,16,1,1,1,true,z,false,false,0.0-2.0-0.63-0.569-3.569,0,0,0,90,false,stim,false,2,932,2,0,2,87003,WMM1,1462024,false,true,1927,image-keyboard-response,32
true,16,1,1,1,true,z,false,true,0.0-2.0-0.63-0.570-3.570,0,0,0,90,false,stim,false,2,454,2,0,1,87003,WMM1,1464008,false,false,1930,image-keyboard-response,33
true,16,0,1,2,false,d,false,false,0.0-2.0-0.63-0.571-3.571,0,0,0,81,false,stim,true,0,1262,2,0,0,87003,WMM1,1466799,false,false,1933,image-keyboard-response,34
true,16,1,1,1,true,z,false,true,0.0-2.0-0.63-0.572-3.572,0,0,0,90,false,stim,false,2,622,2,0,1,87003,WMM1,1468955,false,false,1936,image-keyboard-response,35
true,17,1,2,2,false,d,false,false,0.0-2.0-0.63-0.573-3.573,0,0,0,90,true,stim,true,1,1183,2,0,2,87003,WMM1,1471664,false,false,1939,image-keyboard-response,1
true,17,2,2,0,false,q,false,true,0.0-2.0-0.63-0.574-3.574,0,0,0,68,false,stim,true,2,796,2,0,0,87003,WMM1,1473989,false,true,1942,image-keyboard-response,2
true,17,2,2,2,true,d,false,true,0.0-2.0-0.63-0.575-3.575,0,0,0,68,false,stim,false,1,1160,2,0,1,87003,WMM1,1476686,false,false,1945,image-keyboard-response,3
true,17,2,2,0,false,q,false,false,0.0-2.0-0.64-0.576-3.576,0,0,0,68,false,stim,true,2,527,2,0,0,87003,WMM1,1478750,false,false,1948,image-keyboard-response,4
true,17,2,2,2,true,d,false,true,0.0-2.0-0.64-0.577-3.577,0,0,0,68,false,stim,false,1,359,2,0,1,87003,WMM1,1480649,false,false,1951,image-keyboard-response,5
true,17,2,2,0,false,q,false,false,0.0-2.0-0.64-0.578-3.578,0,0,0,68,false,stim,true,2,503,2,0,0,87003,WMM1,1482689,false,false,1954,image-keyboard-response,6
true,17,1,2,2,false,d,false,false,0.0-2.0-0.64-0.579-3.579,0,0,0,90,false,stim,true,1,781,2,0,2,87003,WMM1,1484996,false,false,1957,image-keyboard-response,7
true,17,1,2,2,false,d,false,true,0.0-2.0-0.64-0.580-3.580,0,0,0,90,false,stim,true,1,905,2,0,2,87003,WMM1,1487438,false,true,1960,image-keyboard-response,8
true,17,1,2,2,false,d,false,false,0.0-2.0-0.64-0.581-3.581,0,0,0,90,false,stim,true,1,641,2,0,2,87003,WMM1,1489606,false,false,1963,image-keyboard-response,9
true,17,2,2,2,true,d,false,true,0.0-2.0-0.64-0.582-3.582,0,0,0,68,false,stim,false,1,786,2,0,1,87003,WMM1,1491914,false,false,1966,image-keyboard-response,10
true,17,2,2,2,true,d,false,true,0.0-2.0-0.64-0.583-3.583,0,0,0,68,false,stim,false,1,626,2,0,1,87003,WMM1,1494067,false,false,1969,image-keyboard-response,11
true,17,0,2,0,true,q,false,true,0.0-2.0-0.64-0.584-3.584,0,0,0,81,false,stim,false,2,584,2,0,0,87003,WMM1,1496175,false,false,1972,image-keyboard-response,12
true,17,2,2,2,true,d,false,true,0.0-2.0-0.65-0.585-3.585,0,0,0,68,false,stim,false,1,618,2,0,1,87003,WMM1,1498341,false,false,1975,image-keyboard-response,13
true,17,0,2,0,true,q,false,true,0.0-2.0-0.65-0.586-3.586,0,0,0,81,false,stim,false,2,836,2,0,0,87003,WMM1,1500704,false,false,1978,image-keyboard-response,14
true,17,0,2,0,true,q,false,true,0.0-2.0-0.65-0.587-3.587,0,0,0,81,false,stim,false,2,702,2,0,0,87003,WMM1,1502936,false,false,1981,image-keyboard-response,15
true,17,0,2,0,true,q,false,true,0.0-2.0-0.65-0.588-3.588,0,0,0,81,false,stim,false,2,521,2,0,0,87003,WMM1,1504985,false,false,1984,image-keyboard-response,16
true,17,2,2,2,true,d,false,false,0.0-2.0-0.65-0.589-3.589,0,0,0,68,false,stim,false,1,1560,2,0,1,87003,WMM1,1508072,false,true,1987,image-keyboard-response,17
true,17,1,2,2,false,d,false,false,0.0-2.0-0.65-0.590-3.590,0,0,0,90,false,stim,true,1,1307,2,0,2,87003,WMM1,1510916,false,false,1990,image-keyboard-response,18
true,17,1,2,2,false,d,false,false,0.0-2.0-0.65-0.591-3.591,0,0,0,90,false,stim,true,1,347,2,0,1,87003,WMM1,1512804,false,false,1993,image-keyboard-response,19
true,17,2,2,2,true,d,false,true,0.0-2.0-0.65-0.592-3.592,0,0,0,68,false,stim,false,1,709,2,0,2,87003,WMM1,1515049,false,false,1996,image-keyboard-response,20
true,17,2,2,2,true,d,false,true,0.0-2.0-0.65-0.593-3.593,0,0,0,68,false,stim,false,1,734,2,0,2,87003,WMM1,1517320,false,false,1999,image-keyboard-response,21
true,17,0,2,2,false,d,true,false,0.0-2.0-0.66-0.594-3.594,0,0,0,81,false,stim,false,1,422,2,0,1,87003,WMM1,1519324,false,false,2002,image-keyboard-response,22
true,17,1,2,2,false,d,false,false,0.0-2.0-0.66-0.595-3.595,0,0,0,90,false,stim,true,1,644,2,0,1,87003,WMM1,1521508,false,false,2005,image-keyboard-response,23
true,17,0,2,0,true,q,false,true,0.0-2.0-0.66-0.596-3.596,0,0,0,81,false,stim,false,2,533,2,0,0,87003,WMM1,1523582,false,false,2008,image-keyboard-response,24
true,17,2,2,2,true,d,false,true,0.0-2.0-0.66-0.597-3.597,0,0,0,68,false,stim,false,1,486,2,0,2,87003,WMM1,1525614,false,false,2011,image-keyboard-response,25
true,17,0,2,0,true,q,false,true,0.0-2.0-0.66-0.598-3.598,0,0,0,81,false,stim,false,2,675,2,0,0,87003,WMM1,1527818,false,false,2014,image-keyboard-response,26
true,17,0,2,0,true,q,false,true,0.0-2.0-0.66-0.599-3.599,0,0,0,81,false,stim,false,2,655,2,0,0,87003,WMM1,1530011,false,false,2017,image-keyboard-response,27
true,17,2,2,2,true,d,false,true,0.0-2.0-0.66-0.600-3.600,0,0,0,68,false,stim,false,1,582,2,0,2,87003,WMM1,1532137,false,false,2020,image-keyboard-response,28
true,17,2,2,2,true,d,false,true,0.0-2.0-0.66-0.601-3.601,0,0,0,68,false,stim,false,1,467,2,0,1,87003,WMM1,1534152,false,false,2023,image-keyboard-response,29
true,17,2,2,2,true,d,false,true,0.0-2.0-0.66-0.602-3.602,0,0,0,68,false,stim,false,1,434,2,0,2,87003,WMM1,1536137,false,false,2026,image-keyboard-response,30
true,17,2,2,2,true,d,false,true,0.0-2.0-0.67-0.603-3.603,0,0,0,68,false,stim,false,1,466,2,0,1,87003,WMM1,1538148,false,false,2029,image-keyboard-response,31
true,17,2,2,2,true,d,false,true,0.0-2.0-0.67-0.604-3.604,0,0,0,68,false,stim,false,1,478,2,0,2,87003,WMM1,1540176,false,false,2032,image-keyboard-response,32
true,17,0,2,0,true,q,false,true,0.0-2.0-0.67-0.605-3.605,0,0,0,81,false,stim,false,2,550,2,0,0,87003,WMM1,1542261,false,false,2035,image-keyboard-response,33
true,17,2,2,2,true,d,false,true,0.0-2.0-0.67-0.606-3.606,0,0,0,68,false,stim,false,1,674,2,1,1,87003,WMM1,1544467,false,false,2038,image-keyboard-response,34
true,17,0,2,0,true,q,false,true,0.0-2.0-0.67-0.607-3.607,0,0,0,81,false,stim,false,2,535,2,0,0,87003,WMM1,1546541,false,false,2041,image-keyboard-response,35
true,17,2,2,2,true,d,false,true,0.0-2.0-0.67-0.608-3.608,0,0,0,68,false,stim,false,1,421,2,0,2,87003,WMM1,1548494,false,false,2044,image-keyboard-response,36
true,17,2,2,2,true,d,false,true,0.0-2.0-0.67-0.609-3.609,0,0,0,68,false,stim,false,1,425,2,0,2,87003,WMM1,1550444,false,false,2047,image-keyboard-response,37
true,17,2,2,2,true,d,false,true,0.0-2.0-0.67-0.610-3.610,0,0,0,68,false,stim,false,1,581,2,1,1,87003,WMM1,1552549,false,false,2050,image-keyboard-response,38
true,17,0,2,0,true,q,false,true,0.0-2.0-0.67-0.611-3.611,0,0,0,81,false,stim,false,2,540,2,0,0,87003,WMM1,1554623,false,false,2053,image-keyboard-response,39
true,17,0,2,0,true,q,false,true,0.0-2.0-0.68-0.612-3.612,0,0,0,81,false,stim,false,2,372,2,0,0,87003,WMM1,1556517,false,false,2056,image-keyboard-response,40
true,17,2,2,2,true,d,false,true,0.0-2.0-0.68-0.613-3.613,0,0,0,68,false,stim,false,1,496,2,1,1,87003,WMM1,1558544,false,false,2059,image-keyboard-response,41
true,18,0,3,2,false,d,false,false,0.0-2.0-0.68-0.614-3.614,0,1,0,81,true,stim,true,0,545,2,0,0,87003,WMM1,1560624,false,false,2062,image-keyboard-response,1
true,18,2,3,2,true,d,false,true,0.0-2.0-0.68-0.615-3.615,0,1,0,68,false,stim,false,2,442,2,1,1,87003,WMM1,1562599,false,false,2065,image-keyboard-response,2
true,18,2,3,1,false,z,false,true,0.0-2.0-0.68-0.616-3.616,0,1,0,68,false,stim,true,2,450,2,0,2,87003,WMM1,1564574,false,true,2068,image-keyboard-response,3
true,18,0,3,2,false,d,false,false,0.0-2.0-0.68-0.617-3.617,0,1,0,81,false,stim,true,0,415,2,0,0,87003,WMM1,1566519,false,false,2071,image-keyboard-response,4
true,18,2,3,1,false,z,false,false,0.0-2.0-0.68-0.618-3.618,0,1,0,68,false,stim,true,2,566,2,0,2,87003,WMM1,1568619,false,false,2074,image-keyboard-response,5
true,18,2,3,2,true,d,false,true,0.0-2.0-0.68-0.619-3.619,0,1,0,68,false,stim,false,2,812,2,1,1,87003,WMM1,1570963,false,false,2077,image-keyboard-response,6
true,18,2,3,1,false,z,false,false,0.0-2.0-0.68-0.620-3.620,0,1,0,68,false,stim,true,2,736,2,0,2,87003,WMM1,1573236,false,false,2080,image-keyboard-response,7
true,18,2,3,2,true,d,false,true,0.0-2.0-0.69-0.621-3.621,0,1,0,68,false,stim,false,2,817,2,1,1,87003,WMM1,1575582,false,false,2083,image-keyboard-response,8
true,18,1,3,2,false,d,true,false,0.0-2.0-0.69-0.622-3.622,0,1,0,90,false,stim,false,0,1083,2,0,0,87003,WMM1,1578194,false,false,2086,image-keyboard-response,9
true,18,2,3,2,true,d,false,true,0.0-2.0-0.69-0.623-3.623,0,1,0,68,false,stim,false,2,960,2,1,1,87003,WMM1,1580684,false,false,2089,image-keyboard-response,10
true,18,2,3,2,true,d,false,true,0.0-2.0-0.69-0.624-3.624,0,1,0,68,false,stim,false,0,423,2,0,0,87003,WMM1,1582645,false,false,2092,image-keyboard-response,11
true,18,0,3,1,false,z,true,false,0.0-2.0-0.69-0.625-3.625,0,1,0,81,false,stim,false,2,439,2,0,2,87003,WMM1,1584609,false,false,2095,image-keyboard-response,12
true,18,2,3,2,true,d,false,true,0.0-2.0-0.69-0.626-3.626,0,1,0,68,false,stim,false,0,576,2,0,0,87003,WMM1,1586710,false,false,2098,image-keyboard-response,13
true,18,1,3,1,true,z,false,false,0.0-2.0-0.69-0.627-3.627,0,1,0,90,false,stim,false,2,371,2,0,2,87003,WMM1,1588662,false,true,2101,image-keyboard-response,14
true,18,2,3,1,false,z,false,false,0.0-2.0-0.69-0.628-3.628,0,1,0,68,false,stim,true,2,864,2,0,2,87003,WMM1,1591062,false,false,2104,image-keyboard-response,15
true,18,2,3,2,true,d,false,true,0.0-2.0-0.69-0.629-3.629,0,1,0,68,false,stim,false,2,593,2,1,1,87003,WMM1,1593188,false,false,2107,image-keyboard-response,16
true,18,2,3,2,true,d,false,true,0.0-2.0-0.70-0.630-3.630,0,1,0,68,false,stim,false,2,539,2,1,1,87003,WMM1,1595265,false,false,2110,image-keyboard-response,17
true,18,2,3,2,true,d,false,true,0.0-2.0-0.70-0.631-3.631,0,1,0,68,false,stim,false,2,556,2,1,1,87003,WMM1,1597348,false,false,2113,image-keyboard-response,18
true,18,2,3,2,true,d,false,true,0.0-2.0-0.70-0.632-3.632,0,1,0,68,false,stim,false,0,560,2,0,0,87003,WMM1,1599433,false,false,2116,image-keyboard-response,19
true,18,0,3,1,false,z,true,false,0.0-2.0-0.70-0.633-3.633,0,1,0,81,false,stim,false,2,446,2,0,2,87003,WMM1,1601417,false,false,2119,image-keyboard-response,20
true,18,2,3,2,true,d,false,false,0.0-2.0-0.70-0.634-3.634,0,1,0,68,false,stim,false,2,572,2,1,1,87003,WMM1,1603542,false,true,2122,image-keyboard-response,21
true,18,2,3,1,false,z,false,false,0.0-2.0-0.70-0.635-3.635,0,1,0,68,false,stim,true,2,388,2,0,2,87003,WMM1,1605473,false,false,2125,image-keyboard-response,22
true,18,2,3,2,true,d,false,true,0.0-2.0-0.70-0.636-3.636,0,1,0,68,false,stim,false,0,468,2,0,0,87003,WMM1,1607499,false,false,2128,image-keyboard-response,23
true,18,2,3,2,true,d,false,true,0.0-2.0-0.70-0.637-3.637,0,1,0,68,false,stim,false,0,660,2,0,0,87003,WMM1,1609706,false,false,2131,image-keyboard-response,24
true,18,1,3,1,true,z,false,false,0.0-2.0-0.70-0.638-3.638,0,1,0,90,false,stim,false,2,550,2,0,2,87003,WMM1,1611794,false,true,2134,image-keyboard-response,25
