answered,blockNum,choice,condition,corResp,correct,correct_response,explo,fb,internal_node_id,isStable_1,isStable_2,isStable_3,key_press,newBlock,part,persev,persevResp,rt,sessNum,stableAS,stimulus,subject,task,time_elapsed,training,trap,trial_index,trial_type,trialsInBlock
true,1,1,0,1,true,z,false,true,0.0-2.0-0.0-0.0-3.0,0,0,0,90,true,stim,false,-1,1015,1,0,0,87003,WMM2,142188,false,false,88,image-keyboard-response,1
true,1,0,0,0,true,q,false,true,0.0-2.0-0.0-0.1-3.1,0,0,0,81,false,stim,false,-1,612,1,0,1,87003,WMM2,144327,false,false,91,image-keyboard-response,2
true,1,0,0,0,true,q,false,true,0.0-2.0-0.0-0.2-3.2,0,0,0,81,false,stim,false,-1,783,1,0,2,87003,WMM2,146647,false,false,94,image-keyboard-response,3
true,1,0,0,0,true,q,false,true,0.0-2.0-0.0-0.3-3.3,0,0,0,81,false,stim,false,-1,599,1,0,1,87003,WMM2,148784,false,false,97,image-keyboard-response,4
true,1,1,0,1,true,z,false,true,0.0-2.0-0.0-0.4-3.4,0,0,0,90,false,stim,false,-1,736,1,0,0,87003,WMM2,151060,false,false,100,image-keyboard-response,5
true,1,0,0,0,true,q,false,true,0.0-2.0-0.0-0.5-3.5,0,0,0,81,false,stim,false,-1,516,1,0,2,87003,WMM2,153101,false,false,103,image-keyboard-response,6
true,1,1,0,1,true,z,false,true,0.0-2.0-0.0-0.6-3.6,0,0,0,90,false,stim,false,-1,536,1,0,0,87003,WMM2,155163,false,false,106,image-keyboard-response,7
true,1,0,0,0,true,q,false,true,0.0-2.0-0.0-0.7-3.7,0,0,0,81,false,stim,false,-1,959,1,0,1,87003,WMM2,157643,false,false,109,image-keyboard-response,8
true,1,0,0,0,true,q,false,true,0.0-2.0-0.0-0.8-3.8,0,0,0,81,false,stim,false,-1,640,1,0,2,87003,WMM2,159804,false,false,112,image-keyboard-response,9
true,1,0,0,0,true,q,false,true,0.0-2.0-0.1-0.9-3.9,0,0,0,81,false,stim,false,-1,581,1,0,1,87003,WMM2,161925,false,false,115,image-keyboard-response,10
true,1,0,0,0,true,q,false,false,0.0-2.0-0.1-0.10-3.10,0,0,0,81,false,stim,false,-1,531,1,0,1,87003,WMM2,163975,false,true,118,image-keyboard-response,11
true,1,1,0,1,true,z,false,true,0.0-2.0-0.1-0.11-3.11,0,0,0,90,false,stim,false,-1,596,1,0,0,87003,WMM2,166090,false,false,121,image-keyboard-response,12
true,1,1,0,1,true,z,false,false,0.0-2.0-0.1-0.12-3.12,0,0,0,90,false,stim,false,-1,509,1,0,0,87003,WMM2,168124,false,true,124,image-keyboard-response,13
true,1,0,0,1,false,z,true,true,0.0-2.0-0.1-0.13-3.13,0,0,0,81,false,stim,false,-1,532,1,0,0,87003,WMM2,170186,false,true,127,image-keyboard-response,14
true,1,1,0,0,false,q,true,false,0.0-2.0-0.1-0.14-3.14,0,0,0,90,false,stim,false,-1,506,1,0,1,87003,WMM2,172222,false,false,130,image-keyboard-response,15
true,1,0,0,0,true,q,false,true,0.0-2.0-0.1-0.15-3.15,0,0,0,81,false,stim,false,-1,671,1,0,2,87003,WMM2,174427,false,false,133,image-keyboard-response,16
true,1,0,0,0,true,q,false,true,0.0-2.0-0.1-0.16-3.16,0,0,0,81,false,stim,false,-1,625,1,0,2,87003,WMM2,176581,false,false,136,image-keyboard-response,17
true,1,0,0,0,true,q,false,true,0.0-2.0-0.1-0.17-3.17,0,0,0,81,false,stim,false,-1,430,1,0,2,87003,WMM2,178547,false,false,139,image-keyboard-response,18
true,1,0,0,1,false,z,true,false,0.0-2.0-0.2-0.18-3.18,0,0,0,81,false,stim,false,-1,578,1,0,0,87003,WMM2,180666,false,false,142,image-keyboard-response,19
true,1,0,0,0,true,q,false,false,0.0-2.0-0.2-0.19-3.19,0,0,0,81,false,stim,false,-1,639,1,0,1,87003,WMM2,182847,false,true,145,image-keyboard-response,20
true,1,1,0,0,false,q,true,false,0.0-2.0-0.2-0.20-3.20,0,0,0,90,false,stim,false,-1,653,1,0,1,87003,WMM2,185032,false,false,148,image-keyboard-response,21
true,1,1,0,0,false,q,true,false,0.0-2.0-0.2-0.21-3.21,0,0,0,90,false,stim,false,-1,705,1,0,2,87003,WMM2,187274,false,false,151,image-keyboard-response,22
true,1,1,0,1,true,z,false,true,0.0-2.0-0.2-0.22-3.22,0,0,0,90,false,stim,false,-1,714,1,0,0,87003,WMM2,189524,false,false,154,image-keyboard-response,23
true,1,0,0,0,true,q,false,false,0.0-2.0-0.2-0.23-3.23,0,0,0,81,false,stim,false,-1,815,1,0,2,87003,WMM2,191886,false,true,157,image-keyboard-response,24
true,1,0,0,0,true,q,false,true,0.0-2.0-0.2-0.24-3.24,0,0,0,81,false,stim,false,-1,1227,1,0,2,87003,WMM2,194658,false,false,160,image-keyboard-response,25
true,1,0,0,0,true,q,false,true,0.0-2.0-0.2-0.25-3.25,0,0,0,81,false,stim,false,-1,1408,1,0,1,87003,WMM2,197599,false,false,163,image-keyboard-response,26
true,1,1,0,1,true,z,false,true,0.0-2.0-0.2-0.26-3.26,0,0,0,90,false,stim,false,-1,586,1,0,0,87003,WMM2,199728,false,false,166,image-keyboard-response,27
true,1,1,0,1,true,z,false,true,0.0-2.0-0.3-0.27-3.27,0,0,0,90,false,stim,false,-1,953,1,0,0,87003,WMM2,202225,false,false,169,image-keyboard-response,28
true,1,1,0,0,false,q,true,true,0.0-2.0-0.3-0.28-3.28,0,0,0,90,false,stim,false,-1,579,1,0,1,87003,WMM2,204333,false,true,172,image-keyboard-response,29
true,1,1,0,1,true,z,false,true,0.0-2.0-0.3-0.29-3.29,0,0,0,90,false,stim,false,-1,604,1,0,0,87003,WMM2,206479,false,false,175,image-keyboard-response,30
true,1,0,0,0,true,q,false,true,0.0-2.0-0.3-0.30-3.30,0,0,0,81,false,stim,false,-1,1727,1,0,2,87003,WMM2,209740,false,false,178,image-keyboard-response,31
true,1,0,0,0,true,q,false,false,0.0-2.0-0.3-0.31-3.31,0,0,0,81,false,stim,false,-1,920,1,0,2,87003,WMM2,212196,false,true,181,image-keyboard-response,32
true,1,1,0,1,true,z,false,true,0.0-2.0-0.3-0.32-3.32,0,0,0,90,false,stim,false,-1,766,1,0,0,87003,WMM2,214496,false,false,184,image-keyboard-response,33
true,1,0,0,0,true,q,false,true,0.0-2.0-0.3-0.33-3.33,0,0,0,81,false,stim,false,-1,1387,1,0,1,87003,WMM2,217414,false,false,187,image-keyboard-response,34
true,1,0,0,0,true,q,false,true,0.0-2.0-0.3-0.34-3.34,0,0,0,81,false,stim,false,-1,561,1,0,1,87003,WMM2,219519,false,false,190,image-keyboard-response,35
true,1,0,0,0,true,q,false,true,0.0-2.0-0.3-0.35-3.35,0,0,0,81,false,stim,false,-1,684,1,0,2,87003,WMM2,221742,false,false,193,image-keyboard-response,36
true,1,1,0,1,true,z,false,true,0.0-2.0-0.4-0.36-3.36,0,0,0,90,false,stim,false,-1,508,1,0,0,87003,WMM2,223785,false,false,196,image-keyboard-response,37
true,1,0,0,0,true,q,false,true,0.0-2.0-0.4-0.37-3.37,0,0,0,81,false,stim,false,-1,989,1,1,1,87003,WMM2,226309,false,false,199,image-keyboard-response,38
true,1,1,0,1,true,z,false,true,0.0-2.0-0.4-0.38-3.38,0,0,0,90,false,stim,false,-1,512,1,0,0,87003,WMM2,228354,false,false,202,image-keyboard-response,39
true,1,0,0,0,true,q,false,true,0.0-2.0-0.4-0.39-3.39,0,0,0,81,false,stim,false,-1,540,1,0,2,87003,WMM2,230423,false,false,205,image-keyboard-response,40
true,1,0,0,0,true,q,false,true,0.0-2.0-0.4-0.40-3.40,0,0,0,81,false,stim,false,-1,575,1,1,1,87003,WMM2,232528,false,false,208,image-keyboard-response,41
true,1,1,0,0,false,q,true,false,0.0-2.0-0.4-0.41-3.41,0,0,0,90,false,stim,false,-1,1087,1,0,2,87003,WMM2,235141,false,false,211,image-keyboard-response,42
true,1,1,0,1,true,z,false,true,0.0-2.0-0.4-0.42-3.42,0,0,0,90,false,stim,false,-1,536,1,0,0,87003,WMM2,237211,false,false,214,image-keyboard-response,43
true,1,0,0,0,true,q,false,true,0.0-2.0-0.4-0.43-3.43,0,0,0,81,false,stim,false,-1,469,1,0,2,87003,WMM2,239213,false,false,217,image-keyboard-response,44
true,1,0,0,0,true,q,false,true,0.0-2.0-0.4-0.44-3.44,0,0,0,81,false,stim,false,-1,376,1,1,1,87003,WMM2,241121,false,false,220,image-keyboard-response,45
true,2,0,1,0,true,q,false,false,0.0-2.0-0.5-0.45-3.45,0,1,0,81,true,stim,false,0,457,1,1,1,87003,WMM2,243123,false,true,223,image-keyboard-response,1
true,2,0,1,0,true,q,false,true,0.0-2.0-0.5-0.46-3.46,0,1,0,81,false,stim,false,0,916,1,1,1,87003,WMM2,245584,false,false,226,image-keyboard-response,2
true,2,1,1,0,false,q,false,false,0.0-2.0-0.5-0.47-3.47,0,1,0,90,false,stim,true,1,652,1,0,0,87003,WMM2,247778,false,false,229,image-keyboard-response,3
true,2,2,1,1,false,z,true,false,0.0-2.0-0.5-0.48-3.48,0,1,0,68,false,stim,false,0,1761,1,0,2,87003,WMM2,251070,false,false,232,image-keyboard-response,4
true,2,0,1,1,false,z,false,true,0.0-2.0-0.5-0.49-3.49,0,1,0,81,false,stim,true,0,1162,1,0,2,87003,WMM2,253760,false,true,235,image-keyboard-response,5
true,2,0,1,0,true,q,false,true,0.0-2.0-0.5-0.50-3.50,0,1,0,81,false,stim,false,0,1070,1,1,1,87003,WMM2,256360,false,false,238,image-keyboard-response,6
true,2,0,1,0,true,q,false,true,0.0-2.0-0.5-0.51-3.51,0,1,0,81,false,stim,false,1,763,1,0,0,87003,WMM2,258664,false,false,241,image-keyboard-response,7
true,2,0,1,1,false,z,false,false,0.0-2.0-0.5-0.52-3.52,0,1,0,81,false,stim,true,0,1488,1,0,2,87003,WMM2,261690,false,false,244,image-keyboard-response,8
true,2,0,1,0,true,q,false,true,0.0-2.0-0.5-0.53-3.53,0,1,0,81,false,stim,false,1,714,1,0,0,87003,WMM2,263936,false,false,247,image-keyboard-response,9
true,2,0,1,0,true,q,false,true,0.0-2.0-0.6-0.54-3.54,0,1,0,81,false,stim,false,0,367,1,1,1,87003,WMM2,265829,false,false,250,image-keyboard-response,10
true,2,1,1,1,true,z,false,true,0.0-2.0-0.6-0.55-3.55,0,1,0,90,false,stim,false,0,449,1,0,2,87003,WMM2,267812,false,false,253,image-keyboard-response,11
true,2,0,1,0,true,q,false,false,0.0-2.0-0.6-0.56-3.56,0,1,0,81,false,stim,false,0,461,1,1,1,87003,WMM2,269813,false,true,256,image-keyboard-response,12
true,2,0,1,0,true,q,false,true,0.0-2.0-0.6-0.57-3.57,0,1,0,81,false,stim,false,1,441,1,0,0,87003,WMM2,271796,false,false,259,image-keyboard-response,13
true,2,0,1,0,true,q,false,true,0.0-2.0-0.6-0.58-3.58,0,1,0,81,false,stim,false,1,1041,1,0,0,87003,WMM2,274376,false,false,262,image-keyboard-response,14
true,2,1,1,0,false,q,true,false,0.0-2.0-0.6-0.59-3.59,0,1,0,90,false,stim,false,0,855,1,1,1,87003,WMM2,276759,false,false,265,image-keyboard-response,15
true,2,0,1,0,true,q,false,true,0.0-2.0-0.6-0.60-3.60,0,1,0,81,false,stim,false,1,646,1,0,0,87003,WMM2,278934,false,false,268,image-keyboard-response,16
true,2,1,1,1,true,z,false,false,0.0-2.0-0.6-0.61-3.61,0,1,0,90,false,stim,false,0,1076,1,0,2,87003,WMM2,281533,false,true,271,image-keyboard-response,17
true,2,0,1,1,false,z,false,true,0.0-2.0-0.6-0.62-3.62,0,1,0,81,false,stim,true,0,619,1,0,2,87003,WMM2,283676,false,true,274,image-keyboard-response,18
true,2,0,1,1,false,z,false,false,0.0-2.0-0.7-0.63-3.63,0,1,0,81,false,stim,true,0,557,1,0,2,87003,WMM2,285766,false,false,277,image-keyboard-response,19
true,2,0,1,1,false,z,false,false,0.0-2.0-0.7-0.64-3.64,0,1,0,81,false,stim,true,0,636,1,0,2,87003,WMM2,287935,false,false,280,image-keyboard-response,20
true,2,0,1,0,true,q,false,true,0.0-2.0-0.7-0.65-3.65,0,1,0,81,false,stim,false,1,1240,1,0,0,87003,WMM2,290718,false,false,283,image-keyboard-response,21
true,2,0,1,0,true,q,false,true,0.0-2.0-0.7-0.66-3.66,0,1,0,81,false,stim,false,1,501,1,0,0,87003,WMM2,292762,false,false,286,image-keyboard-response,22
true,2,0,1,0,true,q,false,false,0.0-2.0-0.7-0.67-3.67,0,1,0,81,false,stim,false,1,476,1,0,0,87003,WMM2,294769,false,true,289,image-keyboard-response,23
true,2,0,1,0,true,q,false,true,0.0-2.0-0.7-0.68-3.68,0,1,0,81,false,stim,false,0,748,1,1,1,87003,WMM2,297061,false,false,292,image-keyboard-response,24
true,2,0,1,1,false,z,false,false,0.0-2.0-0.7-0.69-3.69,0,1,0,81,false,stim,true,0,1138,1,0,2,87003,WMM2,299728,false,false,295,image-keyboard-response,25
true,2,0,1,0,true,q,false,true,0.0-2.0-0.7-0.70-3.70,0,1,0,81,false,stim,false,0,2570,1,1,1,87003,WMM2,303834,false,false,298,image-keyboard-response,26
true,2,0,1,0,true,q,false,true,0.0-2.0-0.7-0.71-3.71,0,1,0,81,false,stim,false,0,506,1,1,1,87003,WMM2,305886,false,false,301,image-keyboard-response,27
true,2,1,1,1,true,z,false,true,0.0-2.0-0.8-0.72-3.72,0,1,0,90,false,stim,false,0,763,1,0,2,87003,WMM2,308190,false,false,304,image-keyboard-response,28
true,2,2,1,0,false,q,true,false,0.0-2.0-0.8-0.73-3.73,0,1,0,68,false,stim,false,1,2597,1,0,0,87003,WMM2,312315,false,false,307,image-keyboard-response,29
true,2,0,1,0,true,q,false,true,0.0-2.0-0.8-0.74-3.74,0,1,0,81,false,stim,false,0,1116,1,1,1,87003,WMM2,314973,false,false,310,image-keyboard-response,30
true,2,1,1,1,true,z,false,true,0.0-2.0-0.8-0.75-3.75,0,1,0,90,false,stim,false,0,1278,1,0,2,87003,WMM2,317797,false,false,313,image-keyboard-response,31
true,2,0,1,0,true,q,false,true,0.0-2.0-0.8-0.76-3.76,0,1,0,81,false,stim,false,0,915,1,1,1,87003,WMM2,320252,false,false,316,image-keyboard-response,32
true,2,1,1,1,true,z,false,true,0.0-2.0-0.8-0.77-3.77,0,1,0,90,false,stim,false,0,467,1,0,2,87003,WMM2,322246,false,false,319,image-keyboard-response,33
true,2,0,1,0,true,q,false,true,0.0-2.0-0.8-0.78-3.78,0,1,0,81,false,stim,false,0,780,1,1,1,87003,WMM2,324570,false,false,322,image-keyboard-response,34
true,2,0,1,0,true,q,false,true,0.0-2.0-0.8-0.79-3.79,0,1,0,81,false,stim,false,1,1623,1,0,0,87003,WMM2,327735,false,false,325,image-keyboard-response,35
true,2,0,1,0,true,q,false,true,0.0-2.0-0.8-0.80-3.80,0,1,0,81,false,stim,false,1,597,1,0,0,87003,WMM2,329860,false,false,328,image-keyboard-response,36
true,2,0,1,0,true,q,false,false,0.0-2.0-0.9-0.81-3.81,0,1,0,81,false,stim,false,0,644,1,1,1,87003,WMM2,332047,false,true,331,image-keyboard-response,37
true,2,1,1,1,true,z,false,false,0.0-2.0-0.9-0.82-3.82,0,1,0,90,false,stim,false,0,762,1,0,2,87003,WMM2,334335,false,true,334,image-keyboard-response,38
true,2,0,1,0,true,q,false,true,0.0-2.0-0.9-0.83-3.83,0,1,0,81,false,stim,false,0,1111,1,1,1,87003,WMM2,336987,false,false,337,image-keyboard-response,39
true,2,0,1,0,true,q,false,true,0.0-2.0-0.9-0.84-3.84,0,1,0,81,false,stim,false,1,939,1,1,0,87003,WMM2,339463,false,false,340,image-keyboard-response,40
true,2,0,1,0,true,q,false,false,0.0-2.0-0.9-0.85-3.85,0,1,0,81,false,stim,false,1,699,1,1,0,87003,WMM2,341702,false,true,343,image-keyboard-response,41
true,2,1,1,1,true,z,false,true,0.0-2.0-0.9-0.86-3.86,0,1,0,90,false,stim,false,0,1036,1,0,2,87003,WMM2,344271,false,false,346,image-keyboard-response,42
true,2,1,1,1,true,z,false,true,0.0-2.0-0.9-0.87-3.87,0,1,0,90,false,stim,false,0,841,1,0,2,87003,WMM2,346648,false,false,349,image-keyboard-response,43
true,2,0,1,0,true,q,false,true,0.0-2.0-0.9-0.88-3.88,0,1,0,81,false,stim,false,1,1112,1,1,0,87003,WMM2,349285,false,false,352,image-keyboard-response,44
true,2,0,1,0,true,q,false,true,0.0-2.0-0.9-0.89-3.89,0,1,0,81,false,stim,false,0,536,1,1,1,87003,WMM2,351353,false,false,355,image-keyboard-response,45
true,2,0,1,0,true,q,false,true,0.0-2.0-0.10-0.90-3.90,0,1,0,81,false,stim,false,0,1230,1,1,1,87003,WMM2,354109,false,false,358,image-keyboard-response,46
true,3,0,4,0,true,q,false,true,0.0-2.0-0.10-0.91-3.91,1,1,0,81,true,stim,false,0,470,1,1,0,87003,WMM2,356110,false,false,361,image-keyboard-response,1
true,3,0,4,0,true,q,false,true,0.0-2.0-0.10-0.92-3.92,1,1,0,81,false,stim,false,0,609,1,1,1,87003,WMM2,358249,false,false,364,image-keyboard-response,2
true,3,1,4,1,true,z,false,true,0.0-2.0-0.10-0.93-3.93,1,1,0,90,false,stim,false,1,906,1,0,2,87003,WMM2,360696,false,false,367,image-keyboard-response,3
true,3,0,4,0,true,q,false,false,0.0-2.0-0.10-0.94-3.94,1,1,0,81,false,stim,false,0,572,1,1,1,87003,WMM2,362791,false,true,370,image-keyboard-response,4
true,3,1,4,1,true,z,false,true,0.0-2.0-0.10-0.95-3.95,1,1,0,90,false,stim,false,1,463,1,0,2,87003,WMM2,364795,false,false,373,image-keyboard-response,5
true,3,1,4,1,true,z,false,true,0.0-2.0-0.10-0.96-3.96,1,1,0,90,false,stim,false,1,730,1,0,2,87003,WMM2,367063,false,false,376,image-keyboard-response,6
true,3,0,4,0,true,q,false,false,0.0-2.0-0.10-0.97-3.97,1,1,0,81,false,stim,false,0,643,1,1,0,87003,WMM2,369248,false,true,379,image-keyboard-response,7
true,3,0,4,0,true,q,false,true,0.0-2.0-0.10-0.98-3.98,1,1,0,81,false,stim,false,0,506,1,1,0,87003,WMM2,371271,false,false,382,image-keyboard-response,8
true,3,0,4,0,true,q,false,true,0.0-2.0-0.11-0.99-3.99,1,1,0,81,false,stim,false,0,572,1,1,0,87003,WMM2,373366,false,false,385,image-keyboard-response,9
true,3,1,4,1,true,z,false,true,0.0-2.0-0.11-0.100-3.100,1,1,0,90,false,stim,false,1,586,1,0,2,87003,WMM2,375482,false,false,388,image-keyboard-response,10
true,3,0,4,0,true,q,false,true,0.0-2.0-0.11-0.101-3.101,1,1,0,81,false,stim,false,0,520,1,1,0,87003,WMM2,377527,false,false,391,image-keyboard-response,11
true,3,1,4,1,true,z,false,true,0.0-2.0-0.11-0.102-3.102,1,1,0,90,false,stim,false,1,485,1,0,2,87003,WMM2,379543,false,false,394,image-keyboard-response,12
true,3,0,4,0,true,q,false,false,0.0-2.0-0.11-0.103-3.103,1,1,0,81,false,stim,false,0,476,1,1,1,87003,WMM2,381543,false,true,397,image-keyboard-response,13
true,3,0,4,0,true,q,false,false,0.0-2.0-0.11-0.104-3.104,1,1,0,81,false,stim,false,0,831,1,1,0,87003,WMM2,383899,false,true,400,image-keyboard-response,14
true,3,1,4,0,false,q,true,false,0.0-2.0-0.11-0.105-3.105,1,1,0,90,false,stim,false,0,1110,1,1,1,87003,WMM2,386557,false,false,403,image-keyboard-response,15
true,3,1,4,1,true,z,false,true,0.0-2.0-0.11-0.106-3.106,1,1,0,90,false,stim,false,1,528,1,0,2,87003,WMM2,388618,false,false,406,image-keyboard-response,16
true,3,0,4,0,true,q,false,false,0.0-2.0-0.11-0.107-3.107,1,1,0,81,false,stim,false,0,424,1,1,1,87003,WMM2,390584,false,true,409,image-keyboard-response,17
true,3,0,4,0,true,q,false,true,0.0-2.0-0.12-0.108-3.108,1,1,0,81,false,stim,false,0,1781,1,1,0,87003,WMM2,393902,false,false,412,image-keyboard-response,18
true,3,2,4,0,false,q,true,true,0.0-2.0-0.12-0.109-3.109,1,1,0,68,false,stim,false,0,596,1,1,1,87003,WMM2,396018,false,true,415,image-keyboard-response,19
true,3,2,4,0,false,q,true,false,0.0-2.0-0.12-0.110-3.110,1,1,0,68,false,stim,false,0,751,1,1,1,87003,WMM2,398294,false,false,418,image-keyboard-response,20
true,3,0,4,0,true,q,false,true,0.0-2.0-0.12-0.111-3.111,1,1,0,81,false,stim,false,0,840,1,1,0,87003,WMM2,400664,false,false,421,image-keyboard-response,21
true,3,1,4,1,true,z,false,true,0.0-2.0-0.12-0.112-3.112,1,1,0,90,false,stim,false,1,488,1,0,2,87003,WMM2,402694,false,false,424,image-keyboard-response,22
true,3,1,4,0,false,q,true,false,0.0-2.0-0.12-0.113-3.113,1,1,0,90,false,stim,false,0,926,1,1,1,87003,WMM2,405149,false,false,427,image-keyboard-response,23
true,3,0,4,0,true,q,false,false,0.0-2.0-0.12-0.114-3.114,1,1,0,81,false,stim,false,0,759,1,1,0,87003,WMM2,407445,false,true,430,image-keyboard-response,24
true,3,1,4,1,true,z,false,true,0.0-2.0-0.12-0.115-3.115,1,1,0,90,false,stim,false,1,792,1,0,2,87003,WMM2,409778,false,false,433,image-keyboard-response,25
true,3,1,4,1,true,z,false,true,0.0-2.0-0.12-0.116-3.116,1,1,0,90,false,stim,false,1,826,1,0,2,87003,WMM2,412131,false,false,436,image-keyboard-response,26
true,3,2,4,0,false,q,true,false,0.0-2.0-0.13-0.117-3.117,1,1,0,68,false,stim,false,0,542,1,1,1,87003,WMM2,414209,false,false,439,image-keyboard-response,27
true,3,0,4,0,true,q,false,true,0.0-2.0-0.13-0.118-3.118,1,1,0,81,false,stim,false,0,959,1,1,1,87003,WMM2,416708,false,false,442,image-keyboard-response,28
true,3,1,4,1,true,z,false,true,0.0-2.0-0.13-0.119-3.119,1,1,0,90,false,stim,false,1,930,1,0,2,87003,WMM2,419179,false,false,445,image-keyboard-response,29
true,3,0,4,0,true,q,false,true,0.0-2.0-0.13-0.120-3.120,1,1,0,81,false,stim,false,0,905,1,1,0,87003,WMM2,421614,false,false,448,image-keyboard-response,30
true,3,0,4,0,true,q,false,true,0.0-2.0-0.13-0.121-3.121,1,1,0,81,false,stim,false,0,479,1,1,1,87003,WMM2,423630,false,false,451,image-keyboard-response,31
true,3,1,4,1,true,z,false,true,0.0-2.0-0.13-0.122-3.122,1,1,0,90,false,stim,false,1,374,1,0,2,87003,WMM2,425524,false,false,454,image-keyboard-response,32
true,3,1,4,1,true,z,false,true,0.0-2.0-0.13-0.123-3.123,1,1,0,90,false,stim,false,1,726,1,0,2,87003,WMM2,427787,false,false,457,image-keyboard-response,33
true,3,0,4,0,true,q,false,true,0.0-2.0-0.13-0.124-3.124,1,1,0,81,false,stim,false,0,572,1,0,0,87003,WMM2,429895,false,false,460,image-keyboard-response,34
true,3,0,4,0,true,q,false,true,0.0-2.0-0.13-0.125-3.125,1,1,0,81,false,stim,false,0,500,1,0,0,87003,WMM2,431924,false,false,463,image-keyboard-response,35
true,3,0,4,0,true,q,false,true,0.0-2.0-0.14-0.126-3.126,1,1,0,81,false,stim,false,0,439,1,0,0,87003,WMM2,433900,false,false,466,image-keyboard-response,36
true,3,0,4,0,true,q,false,true,0.0-2.0-0.14-0.127-3.127,1,1,0,81,false,stim,false,0,542,1,1,1,87003,WMM2,435966,false,false,469,image-keyboard-response,37
true,3,0,4,0,true,q,false,true,0.0-2.0-0.14-0.128-3.128,1,1,0,81,false,stim,false,0,428,1,1,1,87003,WMM2,437933,false,false,472,image-keyboard-response,38
true,3,1,4,1,true,z,false,true,0.0-2.0-0.14-0.129-3.129,1,1,0,90,false,stim,false,1,820,1,0,2,87003,WMM2,440284,false,false,475,image-keyboard-response,39
true,3,0,4,0,true,q,false,true,0.0-2.0-0.14-0.130-3.130,1,1,0,81,false,stim,false,0,625,1,0,0,87003,WMM2,442442,false,false,478,image-keyboard-response,40
true,3,1,4,1,true,z,false,true,0.0-2.0-0.14-0.131-3.131,1,1,0,90,false,stim,false,1,940,1,0,2,87003,WMM2,444926,false,false,481,image-keyboard-response,41
true,4,1,1,2,false,d,false,false,0.0-2.0-0.14-0.132-3.132,0,1,0,90,true,stim,true,1,566,1,0,2,87003,WMM2,447022,false,false,484,image-keyboard-response,1
true,4,0,1,1,false,z,false,false,0.0-2.0-0.14-0.133-3.133,0,1,0,81,false,stim,true,0,962,1,0,0,87003,WMM2,449509,false,false,487,image-keyboard-response,2
true,4,0,1,0,true,q,false,true,0.0-2.0-0.14-0.134-3.134,0,1,0,81,false,stim,false,0,1111,1,1,1,87003,WMM2,452159,false,false,490,image-keyboard-response,3
true,4,0,1,1,false,z,false,false,0.0-2.0-0.15-0.135-3.135,0,1,0,81,false,stim,true,0,438,1,0,0,87003,WMM2,454125,false,false,493,image-keyboard-response,4
true,4,1,1,2,false,d,false,false,0.0-2.0-0.15-0.136-3.136,0,1,0,90,false,stim,true,1,497,1,0,2,87003,WMM2,456165,false,false,496,image-keyboard-response,5
true,4,0,1,0,true,q,false,true,0.0-2.0-0.15-0.137-3.137,0,1,0,81,false,stim,false,0,1245,1,1,1,87003,WMM2,458955,false,false,499,image-keyboard-response,6
true,4,2,1,1,false,z,true,false,0.0-2.0-0.15-0.138-3.138,0,1,0,68,false,stim,false,0,936,1,0,0,87003,WMM2,461436,false,false,502,image-keyboard-response,7
true,4,1,1,1,true,z,false,true,0.0-2.0-0.15-0.139-3.139,0,1,0,90,false,stim,false,0,627,1,0,0,87003,WMM2,463589,false,false,505,image-keyboard-response,8
true,4,1,1,2,false,d,false,false,0.0-2.0-0.15-0.140-3.140,0,1,0,90,false,stim,true,1,423,1,0,2,87003,WMM2,465546,false,false,508,image-keyboard-response,9
true,4,0,1,0,true,q,false,true,0.0-2.0-0.15-0.141-3.141,0,1,0,81,false,stim,false,0,868,1,1,1,87003,WMM2,467949,false,false,511,image-keyboard-response,10
true,4,0,1,0,true,q,false,true,0.0-2.0-0.15-0.142-3.142,0,1,0,81,false,stim,false,0,672,1,1,1,87003,WMM2,470153,false,false,514,image-keyboard-response,11
true,4,0,1,2,false,d,true,false,0.0-2.0-0.15-0.143-3.143,0,1,0,81,false,stim,false,1,443,1,0,2,87003,WMM2,472128,false,false,517,image-keyboard-response,12
true,4,1,1,2,false,d,false,false,0.0-2.0-0.16-0.144-3.144,0,1,0,90,false,stim,true,1,641,1,0,2,87003,WMM2,474294,false,false,520,image-keyboard-response,13
true,4,0,1,0,true,q,false,true,0.0-2.0-0.16-0.145-3.145,0,1,0,81,false,stim,false,0,658,1,1,1,87003,WMM2,476493,false,false,523,image-keyboard-response,14
true,4,2,1,2,true,d,false,true,0.0-2.0-0.16-0.146-3.146,0,1,0,68,false,stim,false,1,408,1,0,2,87003,WMM2,478443,false,false,526,image-keyboard-response,15
true,4,0,1,0,true,q,false,true,0.0-2.0-0.16-0.147-3.147,0,1,0,81,false,stim,false,0,830,1,1,1,87003,WMM2,480807,false,false,529,image-keyboard-response,16
true,4,2,1,1,false,z,true,false,0.0-2.0-0.16-0.148-3.148,0,1,0,68,false,stim,false,0,472,1,0,0,87003,WMM2,482820,false,false,532,image-keyboard-response,17
true,4,1,1,1,true,z,false,true,0.0-2.0-0.16-0.149-3.149,0,1,0,90,false,stim,false,0,610,1,0,0,87003,WMM2,484958,false,false,535,image-keyboard-response,18
true,4,0,1,0,true,q,false,true,0.0-2.0-0.16-0.150-3.150,0,1,0,81,false,stim,false,0,488,1,1,1,87003,WMM2,486975,false,false,538,image-keyboard-response,19
true,4,1,1,1,true,z,false,true,0.0-2.0-0.16-0.151-3.151,0,1,0,90,false,stim,false,0,417,1,0,0,87003,WMM2,488923,false,false,541,image-keyboard-response,20
true,4,2,1,2,true,d,false,true,0.0-2.0-0.16-0.152-3.152,0,1,0,68,false,stim,false,1,480,1,0,2,87003,WMM2,490929,false,false,544,image-keyboard-response,21
true,4,1,1,1,true,z,false,true,0.0-2.0-0.17-0.153-3.153,0,1,0,90,false,stim,false,0,637,1,1,0,87003,WMM2,493106,false,false,547,image-keyboard-response,22
true,4,0,1,0,true,q,false,false,0.0-2.0-0.17-0.154-3.154,0,1,0,81,false,stim,false,0,601,1,0,1,87003,WMM2,495237,false,true,550,image-keyboard-response,23
true,4,1,1,0,false,q,true,true,0.0-2.0-0.17-0.155-3.155,0,1,0,90,false,stim,false,0,820,1,0,1,87003,WMM2,497597,false,true,553,image-keyboard-response,24
true,4,2,1,2,true,d,false,true,0.0-2.0-0.17-0.156-3.156,0,1,0,68,false,stim,false,1,723,1,0,2,87003,WMM2,499859,false,false,556,image-keyboard-response,25
true,4,1,1,1,true,z,false,true,0.0-2.0-0.17-0.157-3.157,0,1,0,90,false,stim,false,0,378,1,1,0,87003,WMM2,501765,false,false,559,image-keyboard-response,26
true,4,1,1,2,false,d,false,false,0.0-2.0-0.17-0.158-3.158,0,1,0,90,false,stim,true,1,393,1,0,2,87003,WMM2,503700,false,false,562,image-keyboard-response,27
true,4,1,1,1,true,z,false,true,0.0-2.0-0.17-0.159-3.159,0,1,0,90,false,stim,false,0,649,1,1,0,87003,WMM2,505866,false,false,565,image-keyboard-response,28
true,4,1,1,0,false,q,true,false,0.0-2.0-0.17-0.160-3.160,0,1,0,90,false,stim,false,0,690,1,0,1,87003,WMM2,508097,false,false,568,image-keyboard-response,29
true,4,2,1,2,true,d,false,true,0.0-2.0-0.17-0.161-3.161,0,1,0,68,false,stim,false,1,812,1,0,2,87003,WMM2,510440,false,false,571,image-keyboard-response,30
true,4,1,1,1,true,z,false,true,0.0-2.0-0.18-0.162-3.162,0,1,0,90,false,stim,false,0,1046,1,1,0,87003,WMM2,513013,false,false,574,image-keyboard-response,31
true,5,0,1,1,false,z,false,false,0.0-2.0-0.18-0.163-3.163,1,0,0,81,true,stim,true,0,393,1,0,1,87003,WMM2,514939,false,false,577,image-keyboard-response,1
true,5,2,1,1,false,z,true,false,0.0-2.0-0.18-0.164-3.164,1,0,0,68,false,stim,false,0,491,1,0,1,87003,WMM2,516958,false,false,580,image-keyboard-response,2
true,5,2,1,0,false,q,false,false,0.0-2.0-0.18-0.165-3.165,1,0,0,68,false,stim,true,2,672,1,0,2,87003,WMM2,519169,false,false,583,image-keyboard-response,3
true,5,1,1,1,true,z,false,true,0.0-2.0-0.18-0.166-3.166,1,0,0,90,false,stim,false,0,520,1,0,1,87003,WMM2,521226,false,false,586,image-keyboard-response,4
true,5,1,1,1,true,z,false,true,0.0-2.0-0.18-0.167-3.167,1,0,0,90,false,stim,false,1,1092,1,1,0,87003,WMM2,523848,false,false,589,image-keyboard-response,5
true,5,1,1,0,false,q,true,false,0.0-2.0-0.18-0.168-3.168,1,0,0,90,false,stim,false,2,642,1,0,2,87003,WMM2,526019,false,false,592,image-keyboard-response,6
true,5,1,1,1,true,z,false,false,0.0-2.0-0.18-0.169-3.169,1,0,0,90,false,stim,false,1,739,1,1,0,87003,WMM2,528295,false,true,595,image-keyboard-response,7
true,5,0,1,0,true,q,false,true,0.0-2.0-0.18-0.170-3.170,1,0,0,81,false,stim,false,2,707,1,0,2,87003,WMM2,530542,false,false,598,image-keyboard-response,8
true,5,1,1,1,true,z,false,true,0.0-2.0-0.19-0.171-3.171,1,0,0,90,false,stim,false,1,754,1,1,0,87003,WMM2,532844,false,false,601,image-keyboard-response,9
true,5,0,1,0,true,q,false,true,0.0-2.0-0.19-0.172-3.172,1,0,0,81,false,stim,false,2,696,1,0,2,87003,WMM2,535073,false,false,604,image-keyboard-response,10
true,5,1,1,1,true,z,false,true,0.0-2.0-0.19-0.173-3.173,1,0,0,90,false,stim,false,0,702,1,0,1,87003,WMM2,537322,false,false,607,image-keyboard-response,11
true,5,1,1,1,true,z,false,true,0.0-2.0-0.19-0.174-3.174,1,0,0,90,false,stim,false,0,404,1,0,1,87003,WMM2,539260,false,false,610,image-keyboard-response,12
true,5,0,1,0,true,q,false,true,0.0-2.0-0.19-0.175-3.175,1,0,0,81,false,stim,false,2,515,1,0,2,87003,WMM2,541312,false,false,613,image-keyboard-response,13
true,5,1,1,1,true,z,false,true,0.0-2.0-0.19-0.176-3.176,1,0,0,90,false,stim,false,1,643,1,1,0,87003,WMM2,543501,false,false,616,image-keyboard-response,14
true,5,0,1,0,true,q,false,false,0.0-2.0-0.19-0.177-3.177,1,0,0,81,false,stim,false,2,815,1,0,2,87003,WMM2,545850,false,true,619,image-keyboard-response,15
true,5,1,1,1,true,z,false,true,0.0-2.0-0.19-0.178-3.178,1,0,0,90,false,stim,false,1,564,1,1,0,87003,WMM2,547942,false,false,622,image-keyboard-response,16
true,5,1,1,1,true,z,false,true,0.0-2.0-0.19-0.179-3.179,1,0,0,90,false,stim,false,0,610,1,0,1,87003,WMM2,550089,false,false,625,image-keyboard-response,17
true,5,0,1,0,true,q,false,false,0.0-2.0-0.20-0.180-3.180,1,0,0,81,false,stim,false,2,610,1,0,2,87003,WMM2,552216,false,true,628,image-keyboard-response,18
true,5,2,1,0,false,q,false,false,0.0-2.0-0.20-0.181-3.181,1,0,0,68,false,stim,true,2,1061,1,0,2,87003,WMM2,554808,false,false,631,image-keyboard-response,19
true,5,1,1,1,true,z,false,true,0.0-2.0-0.20-0.182-3.182,1,0,0,90,false,stim,false,1,620,1,1,0,87003,WMM2,556967,false,false,634,image-keyboard-response,20
true,5,1,1,1,true,z,false,true,0.0-2.0-0.20-0.183-3.183,1,0,0,90,false,stim,false,0,657,1,0,1,87003,WMM2,559163,false,false,637,image-keyboard-response,21
true,5,1,1,1,true,z,false,true,0.0-2.0-0.20-0.184-3.184,1,0,0,90,false,stim,false,0,644,1,0,1,87003,WMM2,561341,false,false,640,image-keyboard-response,22
true,5,1,1,1,true,z,false,true,0.0-2.0-0.20-0.185-3.185,1,0,0,90,false,stim,false,1,392,1,1,0,87003,WMM2,563270,false,false,643,image-keyboard-response,23
true,5,1,1,1,true,z,false,true,0.0-2.0-0.20-0.186-3.186,1,0,0,90,false,stim,false,1,555,1,1,0,87003,WMM2,565373,false,false,646,image-keyboard-response,24
true,5,1,1,0,false,q,true,false,0.0-2.0-0.20-0.187-3.187,1,0,0,90,false,stim,false,2,498,1,0,2,87003,WMM2,567416,false,false,649,image-keyboard-response,25
true,5,1,1,1,true,z,false,true,0.0-2.0-0.20-0.188-3.188,1,0,0,90,false,stim,false,0,391,1,0,1,87003,WMM2,569338,false,false,652,image-keyboard-response,26
true,5,0,1,1,false,z,true,false,0.0-2.0-0.21-0.189-3.189,1,0,0,81,false,stim,false,1,1096,1,1,0,87003,WMM2,571963,false,false,655,image-keyboard-response,27
true,5,0,1,0,true,q,false,true,0.0-2.0-0.21-0.190-3.190,1,0,0,81,false,stim,false,2,836,1,0,2,87003,WMM2,574343,false,false,658,image-keyboard-response,28
true,5,0,1,0,true,q,false,true,0.0-2.0-0.21-0.191-3.191,1,0,0,81,false,stim,false,2,675,1,0,2,87003,WMM2,576563,false,false,661,image-keyboard-response,29
true,5,1,1,1,true,z,false,true,0.0-2.0-0.21-0.192-3.192,1,0,0,90,false,stim,false,0,586,1,0,1,87003,WMM2,578684,false,false,664,image-keyboard-response,30
true,5,1,1,1,true,z,false,true,0.0-2.0-0.21-0.193-3.193,1,0,0,90,false,stim,false,1,441,1,1,0,87003,WMM2,580659,false,false,667,image-keyboard-response,31
true,5,1,1,1,true,z,false,true,0.0-2.0-0.21-0.194-3.194,1,0,0,90,false,stim,false,0,736,1,0,1,87003,WMM2,582933,false,false,670,image-keyboard-response,32
true,5,1,1,1,true,z,false,true,0.0-2.0-0.21-0.195-3.195,1,0,0,90,false,stim,false,1,631,1,1,0,87003,WMM2,585098,false,false,673,image-keyboard-response,33
true,5,1,1,1,true,z,false,true,0.0-2.0-0.21-0.196-3.196,1,0,0,90,false,stim,false,0,563,1,0,1,87003,WMM2,587211,false,false,676,image-keyboard-response,34
true,5,1,1,0,false,q,true,true,0.0-2.0-0.21-0.197-3.197,1,0,0,90,false,stim,false,2,595,1,1,2,87003,WMM2,589333,false,true,679,image-keyboard-response,35
true,5,1,1,0,false,q,true,false,0.0-2.0-0.22-0.198-3.198,1,0,0,90,false,stim,false,2,584,1,1,2,87003,WMM2,591451,false,false,682,image-keyboard-response,36
true,5,1,1,1,true,z,false,true,0.0-2.0-0.22-0.199-3.199,1,0,0,90,false,stim,false,0,615,1,0,1,87003,WMM2,593593,false,false,685,image-keyboard-response,37
true,5,0,1,0,true,q,false,true,0.0-2.0-0.22-0.200-3.200,1,0,0,81,false,stim,false,2,1351,1,1,2,87003,WMM2,596489,false,false,688,image-keyboard-response,38
true,5,1,1,1,true,z,false,true,0.0-2.0-0.22-0.201-3.201,1,0,0,90,false,stim,false,1,470,1,1,0,87003,WMM2,598497,false,false,691,image-keyboard-response,39
true,5,1,1,1,true,z,false,true,0.0-2.0-0.22-0.202-3.202,1,0,0,90,false,stim,false,0,1731,1,0,1,87003,WMM2,601759,false,false,694,image-keyboard-response,40
true,5,1,1,1,true,z,false,false,0.0-2.0-0.22-0.203-3.203,1,0,0,90,false,stim,false,1,650,1,1,0,87003,WMM2,603937,false,true,697,image-keyboard-response,41
true,5,1,1,1,true,z,false,true,0.0-2.0-0.22-0.204-3.204,1,0,0,90,false,stim,false,1,589,1,1,0,87003,WMM2,606056,false,false,700,image-keyboard-response,42
true,5,1,1,1,true,z,false,true,0.0-2.0-0.22-0.205-3.205,1,0,0,90,false,stim,false,0,653,1,0,1,87003,WMM2,608261,false,false,703,image-keyboard-response,43
true,6,0,2,0,true,q,false,true,0.0-2.0-0.22-0.206-3.206,1,0,1,81,true,stim,false,0,548,1,1,2,87003,WMM2,610346,false,false,706,image-keyboard-response,1
true,6,1,2,1,true,z,false,true,0.0-2.0-0.23-0.207-3.207,1,0,1,90,false,stim,false,1,751,1,1,0,87003,WMM2,612638,false,false,709,image-keyboard-response,2
true,6,1,2,2,false,d,false,false,0.0-2.0-0.23-0.208-3.208,1,0,1,90,false,stim,true,1,801,1,0,1,87003,WMM2,614958,false,false,712,image-keyboard-response,3
true,6,1,2,1,true,z,false,false,0.0-2.0-0.23-0.209-3.209,1,0,1,90,false,stim,false,1,963,1,1,0,87003,WMM2,617461,false,true,715,image-keyboard-response,4
true,6,1,2,2,false,d,false,false,0.0-2.0-0.23-0.210-3.210,1,0,1,90,false,stim,true,1,843,1,0,1,87003,WMM2,619840,false,false,718,image-keyboard-response,5
true,6,0,2,0,true,q,false,true,0.0-2.0-0.23-0.211-3.211,1,0,1,81,false,stim,false,0,684,1,1,2,87003,WMM2,622061,false,false,721,image-keyboard-response,6
true,6,1,2,1,true,z,false,false,0.0-2.0-0.23-0.212-3.212,1,0,1,90,false,stim,false,1,1946,1,1,0,87003,WMM2,625534,false,true,724,image-keyboard-response,7
true,6,0,2,0,true,q,false,true,0.0-2.0-0.23-0.213-3.213,1,0,1,81,false,stim,false,0,657,1,1,2,87003,WMM2,627724,false,false,727,image-keyboard-response,8
true,6,0,2,0,true,q,false,true,0.0-2.0-0.23-0.214-3.214,1,0,1,81,false,stim,false,0,618,1,1,2,87003,WMM2,629885,false,false,730,image-keyboard-response,9
true,6,0,2,2,false,d,true,false,0.0-2.0-0.23-0.215-3.215,1,0,1,81,false,stim,false,1,470,1,0,1,87003,WMM2,631896,false,false,733,image-keyboard-response,10
true,6,0,2,0,true,q,false,true,0.0-2.0-0.24-0.216-3.216,1,0,1,81,false,stim,false,0,730,1,1,2,87003,WMM2,634156,false,false,736,image-keyboard-response,11
true,6,0,2,0,true,q,false,true,0.0-2.0-0.24-0.217-3.217,1,0,1,81,false,stim,false,0,696,1,1,2,87003,WMM2,636383,false,false,739,image-keyboard-response,12
true,6,2,2,2,true,d,false,true,0.0-2.0-0.24-0.218-3.218,1,0,1,68,false,stim,false,1,526,1,0,1,87003,WMM2,638433,false,false,742,image-keyboard-response,13
true,6,2,2,1,false,z,true,false,0.0-2.0-0.24-0.219-3.219,1,0,1,68,false,stim,false,1,941,1,1,0,87003,WMM2,640899,false,false,745,image-keyboard-response,14
true,6,2,2,2,true,d,false,true,0.0-2.0-0.24-0.220-3.220,1,0,1,68,false,stim,false,1,751,1,0,1,87003,WMM2,643188,false,false,748,image-keyboard-response,15
true,6,0,2,0,true,q,false,true,0.0-2.0-0.24-0.221-3.221,1,0,1,81,false,stim,false,0,747,1,1,2,87003,WMM2,645475,false,false,751,image-keyboard-response,16
true,6,1,2,1,true,z,false,true,0.0-2.0-0.24-0.222-3.222,1,0,1,90,false,stim,false,1,640,1,1,0,87003,WMM2,647637,false,false,754,image-keyboard-response,17
true,6,2,2,2,true,d,false,false,0.0-2.0-0.24-0.223-3.223,1,0,1,68,false,stim,false,1,715,1,0,1,87003,WMM2,649883,false,true,757,image-keyboard-response,18
true,6,1,2,1,true,z,false,false,0.0-2.0-0.24-0.224-3.224,1,0,1,90,false,stim,false,1,565,1,1,0,87003,WMM2,651973,false,true,760,image-keyboard-response,19
true,6,0,2,1,false,z,true,false,0.0-2.0-0.25-0.225-3.225,1,0,1,81,false,stim,false,1,1488,1,1,0,87003,WMM2,654995,false,false,763,image-keyboard-response,20
true,6,0,2,0,true,q,false,true,0.0-2.0-0.25-0.226-3.226,1,0,1,81,false,stim,false,0,1831,1,1,2,87003,WMM2,658378,false,false,766,image-keyboard-response,21
true,6,0,2,0,true,q,false,true,0.0-2.0-0.25-0.227-3.227,1,0,1,81,false,stim,false,0,523,1,1,2,87003,WMM2,660450,false,false,769,image-keyboard-response,22
true,6,1,2,2,false,d,false,false,0.0-2.0-0.25-0.228-3.228,1,0,1,90,false,stim,true,1,560,1,0,1,87003,WMM2,662547,false,false,772,image-keyboard-response,23
true,6,2,2,2,true,d,false,true,0.0-2.0-0.25-0.229-3.229,1,0,1,68,false,stim,false,1,549,1,0,1,87003,WMM2,664627,false,false,775,image-keyboard-response,24
true,6,2,2,1,false,z,true,false,0.0-2.0-0.25-0.230-3.230,1,0,1,68,false,stim,false,1,1869,1,1,0,87003,WMM2,668027,false,false,778,image-keyboard-response,25
true,6,0,2,0,true,q,false,false,0.0-2.0-0.25-0.231-3.231,1,0,1,81,false,stim,false,0,923,1,1,2,87003,WMM2,670470,false,true,781,image-keyboard-response,26
true,6,2,2,2,true,d,false,true,0.0-2.0-0.25-0.232-3.232,1,0,1,68,false,stim,false,1,1713,1,0,1,87003,WMM2,673720,false,false,784,image-keyboard-response,27
true,6,0,2,1,false,z,true,true,0.0-2.0-0.25-0.233-3.233,1,0,1,81,false,stim,false,1,440,1,1,0,87003,WMM2,675697,false,true,787,image-keyboard-response,28
true,6,2,2,2,true,d,false,true,0.0-2.0-0.26-0.234-3.234,1,0,1,68,false,stim,false,1,1239,1,0,1,87003,WMM2,678476,false,false,790,image-keyboard-response,29
true,6,0,2,1,false,z,true,false,0.0-2.0-0.26-0.235-3.235,1,0,1,81,false,stim,false,1,642,1,1,0,87003,WMM2,680660,false,false,793,image-keyboard-response,30
true,6,0,2,0,true,q,false,true,0.0-2.0-0.26-0.236-3.236,1,0,1,81,false,stim,false,0,830,1,1,2,87003,WMM2,683038,false,false,796,image-keyboard-response,31
true,6,0,2,0,true,q,false,true,0.0-2.0-0.26-0.237-3.237,1,0,1,81,false,stim,false,0,837,1,1,2,87003,WMM2,685426,false,false,799,image-keyboard-response,32
true,6,2,2,2,true,d,false,false,0.0-2.0-0.26-0.238-3.238,1,0,1,68,false,stim,false,1,844,1,0,1,87003,WMM2,687832,false,true,802,image-keyboard-response,33
true,6,2,2,2,true,d,false,true,0.0-2.0-0.26-0.239-3.239,1,0,1,68,false,stim,false,1,1290,1,0,1,87003,WMM2,690658,false,false,805,image-keyboard-response,34
true,6,0,2,0,true,q,false,true,0.0-2.0-0.26-0.240-3.240,1,0,1,81,false,stim,false,0,1335,1,1,2,87003,WMM2,693533,false,false,808,image-keyboard-response,35
true,6,0,2,1,false,z,true,false,0.0-2.0-0.26-0.241-3.241,1,0,1,81,false,stim,false,1,630,1,1,0,87003,WMM2,695706,false,false,811,image-keyboard-response,36
true,6,1,2,1,true,z,false,true,0.0-2.0-0.26-0.242-3.242,1,0,1,90,false,stim,false,1,631,1,1,0,87003,WMM2,697878,false,false,814,image-keyboard-response,37
true,6,0,2,0,true,q,false,true,0.0-2.0-0.27-0.243-3.243,1,0,1,81,false,stim,false,0,1389,1,1,2,87003,WMM2,700816,false,false,817,image-keyboard-response,38
true,6,2,2,2,true,d,false,true,0.0-2.0-0.27-0.244-3.244,1,0,1,68,false,stim,false,1,681,1,0,1,87003,WMM2,703038,false,false,820,image-keyboard-response,39
true,6,1,2,1,true,z,false,true,0.0-2.0-0.27-0.245-3.245,1,0,1,90,false,stim,false,1,2431,1,1,0,87003,WMM2,707008,false,false,823,image-keyboard-response,40
true,6,1,2,1,true,z,false,true,0.0-2.0-0.27-0.246-3.246,1,0,1,90,false,stim,false,1,710,1,1,0,87003,WMM2,709268,false,false,826,image-keyboard-response,41
true,6,1,2,1,true,z,false,true,0.0-2.0-0.27-0.247-3.247,1,0,1,90,false,stim,false,1,648,1,1,0,87003,WMM2,711447,false,false,829,image-keyboard-response,42
true,6,2,2,2,true,d,false,true,0.0-2.0-0.27-0.248-3.248,1,0,1,68,false,stim,false,1,756,1,1,1,87003,WMM2,713734,false,false,832,image-keyboard-response,43
true,6,2,2,2,true,d,false,false,0.0-2.0-0.27-0.249-3.249,1,0,1,68,false,stim,false,1,757,1,1,1,87003,WMM2,716034,false,true,835,image-keyboard-response,44
true,6,0,2,0,true,q,false,true,0.0-2.0-0.27-0.250-3.250,1,0,1,81,false,stim,false,0,712,1,0,2,87003,WMM2,718279,false,false,838,image-keyboard-response,45
true,6,0,2,0,true,q,false,true,0.0-2.0-0.27-0.251-3.251,1,0,1,81,false,stim,false,0,696,1,0,2,87003,WMM2,720504,false,false,841,image-keyboard-response,46
true,6,0,2,0,true,q,false,true,0.0-2.0-0.28-0.252-3.252,1,0,1,81,false,stim,false,0,930,1,0,2,87003,WMM2,722969,false,false,844,image-keyboard-response,47
true,6,1,2,1,true,z,false,false,0.0-2.0-0.28-0.253-3.253,1,0,1,90,false,stim,false,1,774,1,1,0,87003,WMM2,725268,false,true,847,image-keyboard-response,48
true,6,2,2,2,true,d,false,true,0.0-2.0-0.28-0.254-3.254,1,0,1,68,false,stim,false,1,596,1,1,1,87003,WMM2,727392,false,false,850,image-keyboard-response,49
true,6,2,2,2,true,d,false,true,0.0-2.0-0.28-0.255-3.255,1,0,1,68,false,stim,false,1,597,1,1,1,87003,WMM2,729513,false,false,853,image-keyboard-response,50
true,7,2,3,2,true,d,false,true,0.0-2.0-0.28-0.256-3.256,1,1,0,68,true,stim,false,2,581,1,1,1,87003,WMM2,731628,false,false,856,image-keyboard-response,1
true,7,0,3,2,false,d,false,false,0.0-2.0-0.28-0.257-3.257,1,1,0,81,false,stim,true,0,526,1,0,2,87003,WMM2,733693,false,false,859,image-keyboard-response,2
true,7,1,3,1,true,z,false,false,0.0-2.0-0.28-0.258-3.258,1,1,0,90,false,stim,false,1,1593,1,1,0,87003,WMM2,736822,false,true,862,image-keyboard-response,3
true,7,0,3,2,false,d,false,false,0.0-2.0-0.28-0.259-3.259,1,1,0,81,false,stim,true,0,1310,1,0,2,87003,WMM2,739667,false,false,865,image-keyboard-response,4
true,7,0,3,1,false,z,true,false,0.0-2.0-0.28-0.260-3.260,1,1,0,81,false,stim,false,1,1031,1,1,0,87003,WMM2,742229,false,false,868,image-keyboard-response,5
true,7,2,3,2,true,d,false,true,0.0-2.0-0.29-0.261-3.261,1,1,0,68,false,stim,false,2,697,1,1,1,87003,WMM2,744464,false,false,871,image-keyboard-response,6
true,7,2,3,1,false,z,true,false,0.0-2.0-0.29-0.262-3.262,1,1,0,68,false,stim,false,1,643,1,1,0,87003,WMM2,746650,false,false,874,image-keyboard-response,7
true,7,2,3,2,true,d,false,true,0.0-2.0-0.29-0.263-3.263,1,1,0,68,false,stim,false,0,1849,1,0,2,87003,WMM2,750036,false,false,877,image-keyboard-response,8
true,7,0,3,1,false,z,true,true,0.0-2.0-0.29-0.264-3.264,1,1,0,81,false,stim,false,1,1602,1,1,0,87003,WMM2,753170,false,true,880,image-keyboard-response,9
true,7,2,3,2,true,d,false,true,0.0-2.0-0.29-0.265-3.265,1,1,0,68,false,stim,false,0,629,1,0,2,87003,WMM2,755325,false,false,883,image-keyboard-response,10
true,7,2,3,2,true,d,false,true,0.0-2.0-0.29-0.266-3.266,1,1,0,68,false,stim,false,2,660,1,1,1,87003,WMM2,757517,false,false,886,image-keyboard-response,11
true,7,0,3,1,false,z,true,false,0.0-2.0-0.29-0.267-3.267,1,1,0,81,false,stim,false,1,509,1,1,0,87003,WMM2,759566,false,false,889,image-keyboard-response,12
true,7,2,3,2,true,d,false,false,0.0-2.0-0.29-0.268-3.268,1,1,0,68,false,stim,false,0,1862,1,0,2,87003,WMM2,762958,false,true,892,image-keyboard-response,13
true,7,2,3,2,true,d,false,true,0.0-2.0-0.29-0.269-3.269,1,1,0,68,false,stim,false,2,550,1,1,1,87003,WMM2,765046,false,false,895,image-keyboard-response,14
true,7,2,3,2,true,d,false,true,0.0-2.0-0.30-0.270-3.270,1,1,0,68,false,stim,false,2,551,1,1,1,87003,WMM2,767127,false,false,898,image-keyboard-response,15
true,7,2,3,2,true,d,false,true,0.0-2.0-0.30-0.271-3.271,1,1,0,68,false,stim,false,0,452,1,0,2,87003,WMM2,769132,false,false,901,image-keyboard-response,16
true,7,0,3,2,false,d,true,false,0.0-2.0-0.30-0.272-3.272,1,1,0,81,false,stim,false,2,642,1,1,1,87003,WMM2,771290,false,false,904,image-keyboard-response,17
true,7,2,3,2,true,d,false,true,0.0-2.0-0.30-0.273-3.273,1,1,0,68,false,stim,false,2,443,1,1,1,87003,WMM2,773270,false,false,907,image-keyboard-response,18
true,7,0,3,1,false,z,true,true,0.0-2.0-0.30-0.274-3.274,1,1,0,81,false,stim,false,1,2151,1,1,0,87003,WMM2,776948,false,true,910,image-keyboard-response,19
true,7,0,3,1,false,z,true,false,0.0-2.0-0.30-0.275-3.275,1,1,0,81,false,stim,false,1,579,1,1,0,87003,WMM2,779057,false,false,913,image-keyboard-response,20
true,7,2,3,2,true,d,false,true,0.0-2.0-0.30-0.276-3.276,1,1,0,68,false,stim,false,0,548,1,0,2,87003,WMM2,781145,false,false,916,image-keyboard-response,21
true,7,0,3,1,false,z,true,false,0.0-2.0-0.30-0.277-3.277,1,1,0,81,false,stim,false,1,670,1,1,0,87003,WMM2,783348,false,false,919,image-keyboard-response,22
true,7,2,3,2,true,d,false,true,0.0-2.0-0.30-0.278-3.278,1,1,0,68,false,stim,false,0,483,1,0,2,87003,WMM2,785381,false,false,922,image-keyboard-response,23
true,7,2,3,2,true,d,false,true,0.0-2.0-0.31-0.279-3.279,1,1,0,68,false,stim,false,2,689,1,1,1,87003,WMM2,787607,false,false,925,image-keyboard-response,24
true,7,2,3,2,true,d,false,true,0.0-2.0-0.31-0.280-3.280,1,1,0,68,false,stim,false,0,603,1,0,2,87003,WMM2,789740,false,false,928,image-keyboard-response,25
true,7,2,3,2,true,d,false,false,0.0-2.0-0.31-0.281-3.281,1,1,0,68,false,stim,false,2,636,1,1,1,87003,WMM2,791915,false,true,931,image-keyboard-response,26
true,7,1,3,1,true,z,false,true,0.0-2.0-0.31-0.282-3.282,1,1,0,90,false,stim,false,1,888,1,1,0,87003,WMM2,794345,false,false,934,image-keyboard-response,27
true,7,1,3,1,true,z,false,true,0.0-2.0-0.31-0.283-3.283,1,1,0,90,false,stim,false,1,735,1,1,0,87003,WMM2,796632,false,false,937,image-keyboard-response,28
true,7,2,3,2,true,d,false,true,0.0-2.0-0.31-0.284-3.284,1,1,0,68,false,stim,false,0,477,1,0,2,87003,WMM2,798655,false,false,940,image-keyboard-response,29
true,7,1,3,1,true,z,false,true,0.0-2.0-0.31-0.285-3.285,1,1,0,90,false,stim,false,1,980,1,1,0,87003,WMM2,801177,false,false,943,image-keyboard-response,30
true,7,2,3,2,true,d,false,true,0.0-2.0-0.31-0.286-3.286,1,1,0,68,false,stim,false,2,431,1,1,1,87003,WMM2,803148,false,false,946,image-keyboard-response,31
true,7,2,3,2,true,d,false,false,0.0-2.0-0.31-0.287-3.287,1,1,0,68,false,stim,false,0,690,1,0,2,87003,WMM2,805367,false,true,949,image-keyboard-response,32
true,7,2,3,2,true,d,false,false,0.0-2.0-0.32-0.288-3.288,1,1,0,68,false,stim,false,2,536,1,1,1,87003,WMM2,807423,false,true,952,image-keyboard-response,33
true,7,2,3,2,true,d,false,true,0.0-2.0-0.32-0.289-3.289,1,1,0,68,false,stim,false,0,982,1,0,2,87003,WMM2,809938,false,false,955,image-keyboard-response,34
true,7,1,3,1,true,z,false,true,0.0-2.0-0.32-0.290-3.290,1,1,0,90,false,stim,false,1,703,1,1,0,87003,WMM2,812181,false,false,958,image-keyboard-response,35
true,7,1,3,1,true,z,false,true,0.0-2.0-0.32-0.291-3.291,1,1,0,90,false,stim,false,1,620,1,1,0,87003,WMM2,814337,false,false,961,image-keyboard-response,36
true,7,2,3,2,true,d,false,true,0.0-2.0-0.32-0.292-3.292,1,1,0,68,false,stim,false,0,1189,1,0,2,87003,WMM2,817067,false,false,964,image-keyboard-response,37
true,7,0,3,2,false,d,true,true,0.0-2.0-0.32-0.293-3.293,1,1,0,81,false,stim,false,2,463,1,1,1,87003,WMM2,819059,false,true,967,image-keyboard-response,38
true,8,2,4,2,true,d,false,false,0.0-2.0-0.32-0.294-3.294,1,1,0,68,true,stim,false,2,651,1,0,2,87003,WMM2,821247,false,true,970,image-keyboard-response,1
true,8,0,4,2,false,d,true,false,0.0-2.0-0.32-0.295-3.295,1,1,0,81,false,stim,false,2,500,1,1,1,87003,WMM2,823278,false,false,973,image-keyboard-response,2
true,8,1,4,1,true,z,false,false,0.0-2.0-0.32-0.296-3.296,1,1,0,90,false,stim,false,1,725,1,1,0,87003,WMM2,825543,false,true,976,image-keyboard-response,3
true,8,0,4,2,false,d,true,true,0.0-2.0-0.33-0.297-3.297,1,1,0,81,false,stim,false,2,600,1,1,1,87003,WMM2,827666,false,true,979,image-keyboard-response,4
true,8,0,4,2,false,d,true,false,0.0-2.0-0.33-0.298-3.298,1,1,0,81,false,stim,false,2,692,1,1,1,87003,WMM2,829900,false,false,982,image-keyboard-response,5
true,8,0,4,2,false,d,true,false,0.0-2.0-0.33-0.299-3.299,1,1,0,81,false,stim,false,2,472,1,1,1,87003,WMM2,831898,false,false,985,image-keyboard-response,6
true,8,1,4,1,true,z,false,true,0.0-2.0-0.33-0.300-3.300,1,1,0,90,false,stim,false,1,1012,1,1,0,87003,WMM2,834429,false,false,988,image-keyboard-response,7
true,8,1,4,1,true,z,false,true,0.0-2.0-0.33-0.301-3.301,1,1,0,90,false,stim,false,1,684,1,1,0,87003,WMM2,836651,false,false,991,image-keyboard-response,8
true,8,2,4,2,true,d,false,true,0.0-2.0-0.33-0.302-3.302,1,1,0,68,false,stim,false,2,594,1,0,2,87003,WMM2,838781,false,false,994,image-keyboard-response,9
true,8,2,4,2,true,d,false,true,0.0-2.0-0.33-0.303-3.303,1,1,0,68,false,stim,false,2,657,1,0,2,87003,WMM2,840965,false,false,997,image-keyboard-response,10
true,8,2,4,2,true,d,false,true,0.0-2.0-0.33-0.304-3.304,1,1,0,68,false,stim,false,2,469,1,0,2,87003,WMM2,842979,false,false,1000,image-keyboard-response,11
true,8,1,4,1,true,z,false,true,0.0-2.0-0.33-0.305-3.305,1,1,0,90,false,stim,false,1,599,1,1,0,87003,WMM2,845137,false,false,1003,image-keyboard-response,12
true,8,2,4,2,true,d,false,false,0.0-2.0-0.34-0.306-3.306,1,1,0,68,false,stim,false,2,827,1,1,1,87003,WMM2,847491,false,true,1006,image-keyboard-response,13
true,8,1,4,1,true,z,false,true,0.0-2.0-0.34-0.307-3.307,1,1,0,90,false,stim,false,1,891,1,1,0,87003,WMM2,849916,false,false,1009,image-keyboard-response,14
true,8,1,4,1,true,z,false,false,0.0-2.0-0.34-0.308-3.308,1,1,0,90,false,stim,false,1,627,1,1,0,87003,WMM2,852085,false,true,1012,image-keyboard-response,15
true,8,2,4,2,true,d,false,true,0.0-2.0-0.34-0.309-3.309,1,1,0,68,false,stim,false,2,611,1,0,2,87003,WMM2,854228,false,false,1015,image-keyboard-response,16
true,8,2,4,2,true,d,false,true,0.0-2.0-0.34-0.310-3.310,1,1,0,68,false,stim,false,2,477,1,0,2,87003,WMM2,856235,false,false,1018,image-keyboard-response,17
true,8,1,4,2,false,d,true,true,0.0-2.0-0.34-0.311-3.311,1,1,0,90,false,stim,false,2,435,1,1,1,87003,WMM2,858212,false,true,1021,image-keyboard-response,18
true,8,1,4,1,true,z,false,true,0.0-2.0-0.34-0.312-3.312,1,1,0,90,false,stim,false,1,696,1,1,0,87003,WMM2,860443,false,false,1024,image-keyboard-response,19
true,8,2,4,2,true,d,false,true,0.0-2.0-0.34-0.313-3.313,1,1,0,68,false,stim,false,2,373,1,0,2,87003,WMM2,862339,false,false,1027,image-keyboard-response,20
true,8,1,4,2,false,d,true,false,0.0-2.0-0.34-0.314-3.314,1,1,0,90,false,stim,false,2,584,1,1,1,87003,WMM2,864462,false,false,1030,image-keyboard-response,21
true,8,1,4,2,false,d,true,false,0.0-2.0-0.35-0.315-3.315,1,1,0,90,false,stim,false,2,414,1,1,1,87003,WMM2,866413,false,false,1033,image-keyboard-response,22
true,8,1,4,1,true,z,false,true,0.0-2.0-0.35-0.316-3.316,1,1,0,90,false,stim,false,1,799,1,1,0,87003,WMM2,868756,false,false,1036,image-keyboard-response,23
true,8,2,4,2,true,d,false,true,0.0-2.0-0.35-0.317-3.317,1,1,0,68,false,stim,false,2,402,1,1,1,87003,WMM2,870698,false,false,1039,image-keyboard-response,24
true,8,2,4,2,true,d,false,true,0.0-2.0-0.35-0.318-3.318,1,1,0,68,false,stim,false,2,552,1,0,2,87003,WMM2,872789,false,false,1042,image-keyboard-response,25
true,8,1,4,1,true,z,false,true,0.0-2.0-0.35-0.319-3.319,1,1,0,90,false,stim,false,1,568,1,1,0,87003,WMM2,874906,false,false,1045,image-keyboard-response,26
true,8,1,4,1,true,z,false,true,0.0-2.0-0.35-0.320-3.320,1,1,0,90,false,stim,false,1,582,1,1,0,87003,WMM2,877036,false,false,1048,image-keyboard-response,27
true,8,2,4,2,true,d,false,true,0.0-2.0-0.35-0.321-3.321,1,1,0,68,false,stim,false,2,671,1,1,1,87003,WMM2,879256,false,false,1051,image-keyboard-response,28
true,8,2,4,2,true,d,false,true,0.0-2.0-0.35-0.322-3.322,1,1,0,68,false,stim,false,2,485,1,1,2,87003,WMM2,881292,false,false,1054,image-keyboard-response,29
true,8,2,4,2,true,d,false,false,0.0-2.0-0.35-0.323-3.323,1,1,0,68,false,stim,false,2,498,1,1,2,87003,WMM2,883325,false,true,1057,image-keyboard-response,30
true,8,1,4,1,true,z,false,true,0.0-2.0-0.36-0.324-3.324,1,1,0,90,false,stim,false,1,565,1,0,0,87003,WMM2,885431,false,false,1060,image-keyboard-response,31
true,8,2,4,2,true,d,false,true,0.0-2.0-0.36-0.325-3.325,1,1,0,68,false,stim,false,2,549,1,1,1,87003,WMM2,887508,false,false,1063,image-keyboard-response,32
true,8,2,4,2,true,d,false,true,0.0-2.0-0.36-0.326-3.326,1,1,0,68,false,stim,false,2,540,1,1,2,87003,WMM2,889586,false,false,1066,image-keyboard-response,33
true,8,2,4,2,true,d,false,true,0.0-2.0-0.36-0.327-3.327,1,1,0,68,false,stim,false,2,468,1,1,2,87003,WMM2,891596,false,false,1069,image-keyboard-response,34
true,8,2,4,2,true,d,false,true,0.0-2.0-0.36-0.328-3.328,1,1,0,68,false,stim,false,2,583,1,1,1,87003,WMM2,893707,false,false,1072,image-keyboard-response,35
true,8,2,4,2,true,d,false,true,0.0-2.0-0.36-0.329-3.329,1,1,0,68,false,stim,false,2,601,1,1,2,87003,WMM2,895849,false,false,1075,image-keyboard-response,36
true,8,1,4,1,true,z,false,true,0.0-2.0-0.36-0.330-3.330,1,1,0,90,false,stim,false,1,636,1,0,0,87003,WMM2,898022,false,false,1078,image-keyboard-response,37
true,8,2,4,1,false,z,true,false,0.0-2.0-0.36-0.331-3.331,1,1,0,68,false,stim,false,1,476,1,0,0,87003,WMM2,900044,false,false,1081,image-keyboard-response,38
true,9,2,2,2,true,d,false,true,0.0-2.0-0.36-0.332-3.332,0,1,1,68,true,stim,false,2,684,1,1,1,87003,WMM2,902260,false,false,1084,image-keyboard-response,1
true,9,1,2,0,false,q,false,false,0.0-2.0-0.37-0.333-3.333,0,1,1,90,false,stim,true,1,680,1,0,0,87003,WMM2,904467,false,false,1087,image-keyboard-response,2
true,9,1,2,0,false,q,false,true,0.0-2.0-0.37-0.334-3.334,0,1,1,90,false,stim,true,1,372,1,0,0,87003,WMM2,906370,false,true,1090,image-keyboard-response,3
true,9,2,2,2,true,d,false,true,0.0-2.0-0.37-0.335-3.335,0,1,1,68,false,stim,false,2,466,1,1,1,87003,WMM2,908362,false,false,1093,image-keyboard-response,4
true,9,2,2,2,true,d,false,true,0.0-2.0-0.37-0.336-3.336,0,1,1,68,false,stim,false,2,696,1,1,2,87003,WMM2,910592,false,false,1096,image-keyboard-response,5
true,9,2,2,2,true,d,false,false,0.0-2.0-0.37-0.337-3.337,0,1,1,68,false,stim,false,2,587,1,1,1,87003,WMM2,912713,false,true,1099,image-keyboard-response,6
true,9,2,2,2,true,d,false,true,0.0-2.0-0.37-0.338-3.338,0,1,1,68,false,stim,false,2,490,1,1,2,87003,WMM2,914767,false,false,1102,image-keyboard-response,7
true,9,2,2,2,true,d,false,true,0.0-2.0-0.37-0.339-3.339,0,1,1,68,false,stim,false,2,498,1,1,2,87003,WMM2,916806,false,false,1105,image-keyboard-response,8
true,9,2,2,2,true,d,false,true,0.0-2.0-0.37-0.340-3.340,0,1,1,68,false,stim,false,2,505,1,1,1,87003,WMM2,918853,false,false,1108,image-keyboard-response,9
true,9,1,2,0,false,q,false,false,0.0-2.0-0.37-0.341-3.341,0,1,1,90,false,stim,true,1,540,1,0,0,87003,WMM2,920927,false,false,1111,image-keyboard-response,10
true,9,2,2,2,true,d,false,true,0.0-2.0-0.38-0.342-3.342,0,1,1,68,false,stim,false,2,1217,1,1,1,87003,WMM2,923685,false,false,1114,image-keyboard-response,11
true,9,2,2,2,true,d,false,true,0.0-2.0-0.38-0.343-3.343,0,1,1,68,false,stim,false,2,1060,1,1,2,87003,WMM2,926288,false,false,1117,image-keyboard-response,12
true,9,2,2,2,true,d,false,true,0.0-2.0-0.38-0.344-3.344,0,1,1,68,false,stim,false,2,1126,1,1,1,87003,WMM2,928953,false,false,1120,image-keyboard-response,13
true,9,2,2,2,true,d,false,true,0.0-2.0-0.38-0.345-3.345,0,1,1,68,false,stim,false,2,531,1,1,2,87003,WMM2,931016,false,false,1123,image-keyboard-response,14
true,9,0,2,0,true,q,false,true,0.0-2.0-0.38-0.346-3.346,0,1,1,81,false,stim,false,1,460,1,0,0,87003,WMM2,933007,false,false,1126,image-keyboard-response,15
true,9,2,2,2,true,d,false,true,0.0-2.0-0.38-0.347-3.347,0,1,1,68,false,stim,false,2,1287,1,1,1,87003,WMM2,935835,false,false,1129,image-keyboard-response,16
true,9,0,2,0,true,q,false,true,0.0-2.0-0.38-0.348-3.348,0,1,1,81,false,stim,false,1,763,1,0,0,87003,WMM2,938131,false,false,1132,image-keyboard-response,17
true,9,0,2,0,true,q,false,true,0.0-2.0-0.38-0.349-3.349,0,1,1,81,false,stim,false,1,541,1,0,0,87003,WMM2,940197,false,false,1135,image-keyboard-response,18
true,9,2,2,2,true,d,false,true,0.0-2.0-0.38-0.350-3.350,0,1,1,68,false,stim,false,2,648,1,1,2,87003,WMM2,942386,false,false,1138,image-keyboard-response,19
true,9,2,2,2,true,d,false,true,0.0-2.0-0.39-0.351-3.351,0,1,1,68,false,stim,false,2,607,1,1,1,87003,WMM2,944522,false,false,1141,image-keyboard-response,20
true,9,2,2,2,true,d,false,true,0.0-2.0-0.39-0.352-3.352,0,1,1,68,false,stim,false,2,635,1,0,2,87003,WMM2,946703,false,false,1144,image-keyboard-response,21
true,9,2,2,2,true,d,false,true,0.0-2.0-0.39-0.353-3.353,0,1,1,68,false,stim,false,2,550,1,0,2,87003,WMM2,948787,false,false,1147,image-keyboard-response,22
true,9,2,2,2,true,d,false,true,0.0-2.0-0.39-0.354-3.354,0,1,1,68,false,stim,false,2,609,1,1,1,87003,WMM2,950926,false,false,1150,image-keyboard-response,23
true,9,0,2,0,true,q,false,false,0.0-2.0-0.39-0.355-3.355,0,1,1,81,false,stim,false,1,585,1,1,0,87003,WMM2,953044,false,true,1153,image-keyboard-response,24
true,9,2,2,0,false,q,true,false,0.0-2.0-0.39-0.356-3.356,0,1,1,68,false,stim,false,1,1363,1,1,0,87003,WMM2,955940,false,false,1156,image-keyboard-response,25
true,9,2,2,2,true,d,false,true,0.0-2.0-0.39-0.357-3.357,0,1,1,68,false,stim,false,2,609,1,1,1,87003,WMM2,958087,false,false,1159,image-keyboard-response,26
true,9,1,2,0,false,q,false,false,0.0-2.0-0.39-0.358-3.358,0,1,1,90,false,stim,true,1,405,1,1,0,87003,WMM2,960033,false,false,1162,image-keyboard-response,27
true,9,2,2,2,true,d,false,true,0.0-2.0-0.39-0.359-3.359,0,1,1,68,false,stim,false,2,676,1,0,2,87003,WMM2,962242,false,false,1165,image-keyboard-response,28
true,9,0,2,0,true,q,false,true,0.0-2.0-0.40-0.360-3.360,0,1,1,81,false,stim,false,1,511,1,1,0,87003,WMM2,964297,false,false,1168,image-keyboard-response,29
true,9,2,2,2,true,d,false,true,0.0-2.0-0.40-0.361-3.361,0,1,1,68,false,stim,false,2,881,1,1,1,87003,WMM2,966708,false,false,1171,image-keyboard-response,30
true,10,2,2,2,true,d,false,true,0.0-2.0-0.40-0.362-3.362,1,1,0,68,true,stim,false,2,727,1,1,1,87003,WMM2,968963,false,false,1174,image-keyboard-response,1
true,10,2,2,1,false,z,false,false,0.0-2.0-0.40-0.363-3.363,1,1,0,68,false,stim,true,2,666,1,0,2,87003,WMM2,971173,false,false,1177,image-keyboard-response,2
true,10,2,2,2,true,d,false,true,0.0-2.0-0.40-0.364-3.364,1,1,0,68,false,stim,false,2,416,1,1,1,87003,WMM2,973124,false,false,1180,image-keyboard-response,3
true,10,0,2,0,true,q,false,true,0.0-2.0-0.40-0.365-3.365,1,1,0,81,false,stim,false,0,510,1,1,0,87003,WMM2,975167,false,false,1183,image-keyboard-response,4
true,10,0,2,0,true,q,false,true,0.0-2.0-0.40-0.366-3.366,1,1,0,81,false,stim,false,0,560,1,1,0,87003,WMM2,977256,false,false,1186,image-keyboard-response,5
true,10,2,2,1,false,z,false,false,0.0-2.0-0.40-0.367-3.367,1,1,0,68,false,stim,true,2,439,1,0,2,87003,WMM2,979236,false,false,1189,image-keyboard-response,6
true,10,1,2,1,true,z,false,true,0.0-2.0-0.40-0.368-3.368,1,1,0,90,false,stim,false,2,1021,1,0,2,87003,WMM2,981798,false,false,1192,image-keyboard-response,7
true,10,0,2,0,true,q,false,true,0.0-2.0-0.41-0.369-3.369,1,1,0,81,false,stim,false,0,748,1,1,0,87003,WMM2,984086,false,false,1195,image-keyboard-response,8
true,10,1,2,1,true,z,false,true,0.0-2.0-0.41-0.370-3.370,1,1,0,90,false,stim,false,2,465,1,0,2,87003,WMM2,986083,false,false,1198,image-keyboard-response,9
true,10,1,2,1,true,z,false,true,0.0-2.0-0.41-0.371-3.371,1,1,0,90,false,stim,false,2,484,1,0,2,87003,WMM2,988125,false,false,1201,image-keyboard-response,10
true,10,1,2,1,true,z,false,false,0.0-2.0-0.41-0.372-3.372,1,1,0,90,false,stim,false,2,611,1,0,2,87003,WMM2,990269,false,true,1204,image-keyboard-response,11
true,10,2,2,2,true,d,false,true,0.0-2.0-0.41-0.373-3.373,1,1,0,68,false,stim,false,2,576,1,1,1,87003,WMM2,992364,false,false,1207,image-keyboard-response,12
true,10,2,2,2,true,d,false,true,0.0-2.0-0.41-0.374-3.374,1,1,0,68,false,stim,false,2,653,1,1,1,87003,WMM2,994549,false,false,1210,image-keyboard-response,13
true,10,2,2,2,true,d,false,true,0.0-2.0-0.41-0.375-3.375,1,1,0,68,false,stim,false,2,681,1,1,1,87003,WMM2,996757,false,false,1213,image-keyboard-response,14
true,10,0,2,0,true,q,false,true,0.0-2.0-0.41-0.376-3.376,1,1,0,81,false,stim,false,0,779,1,1,0,87003,WMM2,999077,false,false,1216,image-keyboard-response,15
true,10,0,2,0,true,q,false,true,0.0-2.0-0.41-0.377-3.377,1,1,0,81,false,stim,false,0,511,1,1,0,87003,WMM2,1001129,false,false,1219,image-keyboard-response,16
true,10,0,2,2,false,d,true,false,0.0-2.0-0.42-0.378-3.378,1,1,0,81,false,stim,false,2,531,1,1,1,87003,WMM2,1003186,false,false,1222,image-keyboard-response,17
true,10,0,2,0,true,q,false,false,0.0-2.0-0.42-0.379-3.379,1,1,0,81,false,stim,false,0,985,1,1,0,87003,WMM2,1005700,false,true,1225,image-keyboard-response,18
true,10,1,2,1,true,z,false,true,0.0-2.0-0.42-0.380-3.380,1,1,0,90,false,stim,false,2,753,1,0,2,87003,WMM2,1007979,false,false,1228,image-keyboard-response,19
true,10,2,2,2,true,d,false,true,0.0-2.0-0.42-0.381-3.381,1,1,0,68,false,stim,false,2,615,1,1,1,87003,WMM2,1010121,false,false,1231,image-keyboard-response,20
true,10,2,2,2,true,d,false,true,0.0-2.0-0.42-0.382-3.382,1,1,0,68,false,stim,false,2,594,1,1,1,87003,WMM2,1012260,false,false,1234,image-keyboard-response,21
true,10,0,2,0,true,q,false,true,0.0-2.0-0.42-0.383-3.383,1,1,0,81,false,stim,false,0,621,1,1,0,87003,WMM2,1014418,false,false,1237,image-keyboard-response,22
true,10,0,2,0,true,q,false,true,0.0-2.0-0.42-0.384-3.384,1,1,0,81,false,stim,false,0,436,1,1,0,87003,WMM2,1016385,false,false,1240,image-keyboard-response,23
true,10,1,2,1,true,z,false,true,0.0-2.0-0.42-0.385-3.385,1,1,0,90,false,stim,false,2,661,1,0,2,87003,WMM2,1018586,false,false,1243,image-keyboard-response,24
true,10,1,2,1,true,z,false,true,0.0-2.0-0.42-0.386-3.386,1,1,0,90,false,stim,false,2,544,1,0,2,87003,WMM2,1020669,false,false,1246,image-keyboard-response,25
true,10,0,2,0,true,q,false,false,0.0-2.0-0.43-0.387-3.387,1,1,0,81,false,stim,false,0,548,1,1,0,87003,WMM2,1022755,false,true,1249,image-keyboard-response,26
true,10,2,2,2,true,d,false,true,0.0-2.0-0.43-0.388-3.388,1,1,0,68,false,stim,false,2,750,1,1,1,87003,WMM2,1025047,false,false,1252,image-keyboard-response,27
true,10,1,2,1,true,z,false,true,0.0-2.0-0.43-0.389-3.389,1,1,0,90,false,stim,false,2,1007,1,0,2,87003,WMM2,1027584,false,false,1255,image-keyboard-response,28
true,10,2,2,2,true,d,false,true,0.0-2.0-0.43-0.390-3.390,1,1,0,68,false,stim,false,2,680,1,1,1,87003,WMM2,1029797,false,false,1258,image-keyboard-response,29
true,10,1,2,1,true,z,false,true,0.0-2.0-0.43-0.391-3.391,1,1,0,90,false,stim,false,2,676,1,0,2,87003,WMM2,1032013,false,false,1261,image-keyboard-response,30
true,10,2,2,2,true,d,false,true,0.0-2.0-0.43-0.392-3.392,1,1,0,68,false,stim,false,2,416,1,1,1,87003,WMM2,1033973,false,false,1264,image-keyboard-response,31
true,11,0,3,0,true,q,false,true,0.0-2.0-0.43-0.393-3.393,1,1,0,81,true,stim,false,0,585,1,1,0,87003,WMM2,1036090,false,false,1267,image-keyboard-response,1
true,11,1,3,0,false,q,false,false,0.0-2.0-0.43-0.394-3.394,1,1,0,90,false,stim,true,1,970,1,0,2,87003,WMM2,1038596,false,false,1270,image-keyboard-response,2
true,11,0,3,0,true,q,false,true,0.0-2.0-0.43-0.395-3.395,1,1,0,81,false,stim,false,0,663,1,1,0,87003,WMM2,1040799,false,false,1273,image-keyboard-response,3
true,11,0,3,0,true,q,false,true,0.0-2.0-0.44-0.396-3.396,1,1,0,81,false,stim,false,0,705,1,1,0,87003,WMM2,1043040,false,false,1276,image-keyboard-response,4
true,11,0,3,0,true,q,false,true,0.0-2.0-0.44-0.397-3.397,1,1,0,81,false,stim,false,0,1082,1,1,0,87003,WMM2,1045648,false,false,1279,image-keyboard-response,5
true,11,1,3,0,false,q,false,false,0.0-2.0-0.44-0.398-3.398,1,1,0,90,false,stim,true,1,657,1,0,2,87003,WMM2,1047834,false,false,1282,image-keyboard-response,6
true,11,2,3,2,true,d,false,true,0.0-2.0-0.44-0.399-3.399,1,1,0,68,false,stim,false,2,458,1,1,1,87003,WMM2,1049834,false,false,1285,image-keyboard-response,7
true,11,2,3,2,true,d,false,false,0.0-2.0-0.44-0.400-3.400,1,1,0,68,false,stim,false,2,621,1,1,1,87003,WMM2,1051999,false,true,1288,image-keyboard-response,8
true,11,0,3,0,true,q,false,true,0.0-2.0-0.44-0.401-3.401,1,1,0,81,false,stim,false,1,535,1,0,2,87003,WMM2,1054061,false,false,1291,image-keyboard-response,9
true,11,0,3,0,true,q,false,true,0.0-2.0-0.44-0.402-3.402,1,1,0,81,false,stim,false,0,668,1,1,0,87003,WMM2,1056255,false,false,1294,image-keyboard-response,10
true,11,0,3,0,true,q,false,true,0.0-2.0-0.44-0.403-3.403,1,1,0,81,false,stim,false,1,743,1,0,2,87003,WMM2,1058538,false,false,1297,image-keyboard-response,11
true,11,1,3,2,false,d,true,false,0.0-2.0-0.44-0.404-3.404,1,1,0,90,false,stim,false,2,912,1,1,1,87003,WMM2,1060978,false,false,1300,image-keyboard-response,12
true,11,0,3,0,true,q,false,true,0.0-2.0-0.45-0.405-3.405,1,1,0,81,false,stim,false,1,1383,1,0,2,87003,WMM2,1063909,false,false,1303,image-keyboard-response,13
true,11,0,3,0,true,q,false,true,0.0-2.0-0.45-0.406-3.406,1,1,0,81,false,stim,false,0,495,1,1,0,87003,WMM2,1065942,false,false,1306,image-keyboard-response,14
true,11,0,3,0,true,q,false,true,0.0-2.0-0.45-0.407-3.407,1,1,0,81,false,stim,false,1,681,1,0,2,87003,WMM2,1068158,false,false,1309,image-keyboard-response,15
true,11,0,3,2,false,d,true,false,0.0-2.0-0.45-0.408-3.408,1,1,0,81,false,stim,false,2,348,1,1,1,87003,WMM2,1070035,false,false,1312,image-keyboard-response,16
true,11,1,3,2,false,d,true,false,0.0-2.0-0.45-0.409-3.409,1,1,0,90,false,stim,false,2,673,1,1,1,87003,WMM2,1072238,false,false,1315,image-keyboard-response,17
true,11,0,3,0,true,q,false,true,0.0-2.0-0.45-0.410-3.410,1,1,0,81,false,stim,false,1,580,1,0,2,87003,WMM2,1074346,false,false,1318,image-keyboard-response,18
true,11,2,3,2,true,d,false,true,0.0-2.0-0.45-0.411-3.411,1,1,0,68,false,stim,false,2,416,1,1,1,87003,WMM2,1076301,false,false,1321,image-keyboard-response,19
true,11,0,3,0,true,q,false,true,0.0-2.0-0.45-0.412-3.412,1,1,0,81,false,stim,false,0,1114,1,1,0,87003,WMM2,1078937,false,false,1324,image-keyboard-response,20
true,11,0,3,0,true,q,false,true,0.0-2.0-0.45-0.413-3.413,1,1,0,81,false,stim,false,0,513,1,1,0,87003,WMM2,1081001,false,false,1327,image-keyboard-response,21
true,11,2,3,2,true,d,false,true,0.0-2.0-0.46-0.414-3.414,1,1,0,68,false,stim,false,2,927,1,1,1,87003,WMM2,1083474,false,false,1330,image-keyboard-response,22
true,11,0,3,0,true,q,false,false,0.0-2.0-0.46-0.415-3.415,1,1,0,81,false,stim,false,0,515,1,1,0,87003,WMM2,1085530,false,true,1333,image-keyboard-response,23
true,11,0,3,0,true,q,false,false,0.0-2.0-0.46-0.416-3.416,1,1,0,81,false,stim,false,1,352,1,1,2,87003,WMM2,1087408,false,true,1336,image-keyboard-response,24
true,11,0,3,0,true,q,false,true,0.0-2.0-0.46-0.417-3.417,1,1,0,81,false,stim,false,0,568,1,1,0,87003,WMM2,1089514,false,false,1339,image-keyboard-response,25
true,11,0,3,0,true,q,false,true,0.0-2.0-0.46-0.418-3.418,1,1,0,81,false,stim,false,1,331,1,1,2,87003,WMM2,1091377,false,false,1342,image-keyboard-response,26
true,11,0,3,0,true,q,false,true,0.0-2.0-0.46-0.419-3.419,1,1,0,81,false,stim,false,0,540,1,1,0,87003,WMM2,1093447,false,false,1345,image-keyboard-response,27
true,11,2,3,2,true,d,false,true,0.0-2.0-0.46-0.420-3.420,1,1,0,68,false,stim,false,2,699,1,0,1,87003,WMM2,1095685,false,false,1348,image-keyboard-response,28
true,11,0,3,0,true,q,false,false,0.0-2.0-0.46-0.421-3.421,1,1,0,81,false,stim,false,1,493,1,1,2,87003,WMM2,1097730,false,true,1351,image-keyboard-response,29
true,11,2,3,2,true,d,false,true,0.0-2.0-0.46-0.422-3.422,1,1,0,68,false,stim,false,2,523,1,0,1,87003,WMM2,1099794,false,false,1354,image-keyboard-response,30
true,11,2,3,2,true,d,false,true,0.0-2.0-0.47-0.423-3.423,1,1,0,68,false,stim,false,2,740,1,0,1,87003,WMM2,1102076,false,false,1357,image-keyboard-response,31
true,11,0,3,0,true,q,false,false,0.0-2.0-0.47-0.424-3.424,1,1,0,81,false,stim,false,0,777,1,1,0,87003,WMM2,1104393,false,true,1360,image-keyboard-response,32
true,12,1,3,0,false,q,true,false,0.0-2.0-0.47-0.425-3.425,1,0,1,90,true,stim,false,0,704,1,1,2,87003,WMM2,1106630,false,false,1363,image-keyboard-response,1
true,12,0,3,0,true,q,false,true,0.0-2.0-0.47-0.426-3.426,1,0,1,81,false,stim,false,0,877,1,1,0,87003,WMM2,1109044,false,false,1366,image-keyboard-response,2
true,12,0,3,0,true,q,false,true,0.0-2.0-0.47-0.427-3.427,1,0,1,81,false,stim,false,0,423,1,1,2,87003,WMM2,1111009,false,false,1369,image-keyboard-response,3
true,12,0,3,0,true,q,false,false,0.0-2.0-0.47-0.428-3.428,1,0,1,81,false,stim,false,0,851,1,1,0,87003,WMM2,1113397,false,true,1372,image-keyboard-response,4
true,12,2,3,1,false,z,false,false,0.0-2.0-0.47-0.429-3.429,1,0,1,68,false,stim,true,2,773,1,0,1,87003,WMM2,1115699,false,false,1375,image-keyboard-response,5
true,12,2,3,1,false,z,false,false,0.0-2.0-0.47-0.430-3.430,1,0,1,68,false,stim,true,2,627,1,0,1,87003,WMM2,1117864,false,false,1378,image-keyboard-response,6
true,12,0,3,0,true,q,false,true,0.0-2.0-0.47-0.431-3.431,1,0,1,81,false,stim,false,0,799,1,1,2,87003,WMM2,1120195,false,false,1381,image-keyboard-response,7
true,12,1,3,1,true,z,false,true,0.0-2.0-0.48-0.432-3.432,1,0,1,90,false,stim,false,2,478,1,0,1,87003,WMM2,1122214,false,false,1384,image-keyboard-response,8
true,12,0,3,0,true,q,false,false,0.0-2.0-0.48-0.433-3.433,1,0,1,81,false,stim,false,0,845,1,1,0,87003,WMM2,1124600,false,true,1387,image-keyboard-response,9
true,12,2,3,0,false,q,true,true,0.0-2.0-0.48-0.434-3.434,1,0,1,68,false,stim,false,0,593,1,1,0,87003,WMM2,1126718,false,true,1390,image-keyboard-response,10
true,12,0,3,0,true,q,false,false,0.0-2.0-0.48-0.435-3.435,1,0,1,81,false,stim,false,0,888,1,1,2,87003,WMM2,1129134,false,true,1393,image-keyboard-response,11
true,12,1,3,1,true,z,false,false,0.0-2.0-0.48-0.436-3.436,1,0,1,90,false,stim,false,2,787,1,0,1,87003,WMM2,1131451,false,true,1396,image-keyboard-response,12
true,12,2,3,1,false,z,false,false,0.0-2.0-0.48-0.437-3.437,1,0,1,68,false,stim,true,2,1452,1,0,1,87003,WMM2,1134436,false,false,1399,image-keyboard-response,13
true,12,0,3,0,true,q,false,true,0.0-2.0-0.48-0.438-3.438,1,0,1,81,false,stim,false,0,1226,1,1,2,87003,WMM2,1137221,false,false,1402,image-keyboard-response,14
true,12,2,3,0,false,q,true,true,0.0-2.0-0.48-0.439-3.439,1,0,1,68,false,stim,false,0,915,1,1,0,87003,WMM2,1139672,false,true,1405,image-keyboard-response,15
true,12,0,3,0,true,q,false,true,0.0-2.0-0.48-0.440-3.440,1,0,1,81,false,stim,false,0,601,1,1,2,87003,WMM2,1141818,false,false,1408,image-keyboard-response,16
true,12,0,3,1,false,z,true,true,0.0-2.0-0.49-0.441-3.441,1,0,1,81,false,stim,false,2,626,1,0,1,87003,WMM2,1143984,false,true,1411,image-keyboard-response,17
true,12,0,3,0,true,q,false,true,0.0-2.0-0.49-0.442-3.442,1,0,1,81,false,stim,false,0,795,1,1,2,87003,WMM2,1146321,false,false,1414,image-keyboard-response,18
true,12,2,3,0,false,q,true,true,0.0-2.0-0.49-0.443-3.443,1,0,1,68,false,stim,false,0,628,1,1,0,87003,WMM2,1148495,false,true,1417,image-keyboard-response,19
true,12,0,3,0,true,q,false,false,0.0-2.0-0.49-0.444-3.444,1,0,1,81,false,stim,false,0,682,1,1,2,87003,WMM2,1150718,false,true,1420,image-keyboard-response,20
true,12,0,3,1,false,z,true,false,0.0-2.0-0.49-0.445-3.445,1,0,1,81,false,stim,false,2,438,1,0,1,87003,WMM2,1152705,false,false,1423,image-keyboard-response,21
true,12,0,3,1,false,z,true,false,0.0-2.0-0.49-0.446-3.446,1,0,1,81,false,stim,false,2,425,1,0,1,87003,WMM2,1154681,false,false,1426,image-keyboard-response,22
true,12,2,3,0,false,q,true,false,0.0-2.0-0.49-0.447-3.447,1,0,1,68,false,stim,false,0,672,1,1,0,87003,WMM2,1156889,false,false,1429,image-keyboard-response,23
true,12,0,3,0,true,q,false,true,0.0-2.0-0.49-0.448-3.448,1,0,1,81,false,stim,false,0,752,1,1,2,87003,WMM2,1159179,false,false,1432,image-keyboard-response,24
true,12,2,3,0,false,q,true,false,0.0-2.0-0.49-0.449-3.449,1,0,1,68,false,stim,false,0,763,1,1,0,87003,WMM2,1161488,false,false,1435,image-keyboard-response,25
true,12,1,3,0,false,q,true,false,0.0-2.0-0.50-0.450-3.450,1,0,1,90,false,stim,false,0,664,1,1,0,87003,WMM2,1163683,false,false,1438,image-keyboard-response,26
true,12,0,3,0,true,q,false,false,0.0-2.0-0.50-0.451-3.451,1,0,1,81,false,stim,false,0,504,1,1,0,87003,WMM2,1165740,false,true,1441,image-keyboard-response,27
true,12,2,3,0,false,q,true,true,0.0-2.0-0.50-0.452-3.452,1,0,1,68,false,stim,false,0,369,1,1,0,87003,WMM2,1167645,false,true,1444,image-keyboard-response,28
true,12,0,3,0,true,q,false,true,0.0-2.0-0.50-0.453-3.453,1,0,1,81,false,stim,false,0,1409,1,1,2,87003,WMM2,1170606,false,false,1447,image-keyboard-response,29
true,12,0,3,1,false,z,true,false,0.0-2.0-0.50-0.454-3.454,1,0,1,81,false,stim,false,2,935,1,0,1,87003,WMM2,1173091,false,false,1450,image-keyboard-response,30
true,12,1,3,1,true,z,false,true,0.0-2.0-0.50-0.455-3.455,1,0,1,90,false,stim,false,2,514,1,0,1,87003,WMM2,1175160,false,false,1453,image-keyboard-response,31
true,12,0,3,0,true,q,false,true,0.0-2.0-0.50-0.456-3.456,1,0,1,81,false,stim,false,0,668,1,1,2,87003,WMM2,1177365,false,false,1456,image-keyboard-response,32
true,12,0,3,0,true,q,false,true,0.0-2.0-0.50-0.457-3.457,1,0,1,81,false,stim,false,0,739,1,1,2,87003,WMM2,1179646,false,false,1459,image-keyboard-response,33
true,12,1,3,1,true,z,false,true,0.0-2.0-0.50-0.458-3.458,1,0,1,90,false,stim,false,2,391,1,0,1,87003,WMM2,1181577,false,false,1462,image-keyboard-response,34
true,12,2,3,0,false,q,true,false,0.0-2.0-0.51-0.459-3.459,1,0,1,68,false,stim,false,0,482,1,1,0,87003,WMM2,1183608,false,false,1465,image-keyboard-response,35
true,12,0,3,0,true,q,false,true,0.0-2.0-0.51-0.460-3.460,1,0,1,81,false,stim,false,0,653,1,1,2,87003,WMM2,1185798,false,false,1468,image-keyboard-response,36
true,12,1,3,1,true,z,false,true,0.0-2.0-0.51-0.461-3.461,1,0,1,90,false,stim,false,2,750,1,0,1,87003,WMM2,1188085,false,false,1471,image-keyboard-response,37
true,12,1,3,1,true,z,false,true,0.0-2.0-0.51-0.462-3.462,1,0,1,90,false,stim,false,2,712,1,0,1,87003,WMM2,1190346,false,false,1474,image-keyboard-response,38
true,12,2,3,0,false,q,true,false,0.0-2.0-0.51-0.463-3.463,1,0,1,68,false,stim,false,0,525,1,1,0,87003,WMM2,1192420,false,false,1477,image-keyboard-response,39
true,12,0,3,0,true,q,false,true,0.0-2.0-0.51-0.464-3.464,1,0,1,81,false,stim,false,0,647,1,1,2,87003,WMM2,1194623,false,false,1480,image-keyboard-response,40
true,12,0,3,0,true,q,false,true,0.0-2.0-0.51-0.465-3.465,1,0,1,81,false,stim,false,0,992,1,1,2,87003,WMM2,1197169,false,false,1483,image-keyboard-response,41
true,12,0,3,0,true,q,false,true,0.0-2.0-0.51-0.466-3.466,1,0,1,81,false,stim,false,0,1181,1,1,0,87003,WMM2,1199883,false,false,1486,image-keyboard-response,42
true,12,1,3,1,true,z,false,true,0.0-2.0-0.51-0.467-3.467,1,0,1,90,false,stim,false,2,552,1,0,1,87003,WMM2,1201978,false,false,1489,image-keyboard-response,43
true,12,1,3,1,true,z,false,true,0.0-2.0-0.52-0.468-3.468,1,0,1,90,false,stim,false,2,682,1,0,1,87003,WMM2,1204207,false,false,1492,image-keyboard-response,44
true,12,0,3,0,true,q,false,false,0.0-2.0-0.52-0.469-3.469,1,0,1,81,false,stim,false,0,487,1,1,2,87003,WMM2,1206234,false,true,1495,image-keyboard-response,45
true,12,0,3,0,true,q,false,false,0.0-2.0-0.52-0.470-3.470,1,0,1,81,false,stim,false,0,764,1,1,0,87003,WMM2,1208540,false,true,1498,image-keyboard-response,46
true,12,0,3,0,true,q,false,true,0.0-2.0-0.52-0.471-3.471,1,0,1,81,false,stim,false,0,617,1,1,0,87003,WMM2,1210741,false,false,1501,image-keyboard-response,47
true,12,1,3,1,true,z,false,false,0.0-2.0-0.52-0.472-3.472,1,0,1,90,false,stim,false,2,511,1,1,1,87003,WMM2,1212787,false,true,1504,image-keyboard-response,48
true,12,0,3,0,true,q,false,true,0.0-2.0-0.52-0.473-3.473,1,0,1,81,false,stim,false,0,562,1,0,2,87003,WMM2,1214887,false,false,1507,image-keyboard-response,49
true,12,0,3,0,true,q,false,true,0.0-2.0-0.52-0.474-3.474,1,0,1,81,false,stim,false,0,891,1,0,2,87003,WMM2,1217296,false,false,1510,image-keyboard-response,50
true,12,0,3,0,true,q,false,true,0.0-2.0-0.52-0.475-3.475,1,0,1,81,false,stim,false,0,538,1,1,0,87003,WMM2,1219355,false,false,1513,image-keyboard-response,51
true,12,2,3,1,false,z,false,true,0.0-2.0-0.52-0.476-3.476,1,0,1,68,false,stim,true,2,1291,1,1,1,87003,WMM2,1222188,false,true,1516,image-keyboard-response,52
true,12,2,3,1,false,z,false,false,0.0-2.0-0.53-0.477-3.477,1,0,1,68,false,stim,true,2,714,1,1,1,87003,WMM2,1224430,false,false,1519,image-keyboard-response,53
true,12,0,3,0,true,q,false,true,0.0-2.0-0.53-0.478-3.478,1,0,1,81,false,stim,false,0,584,1,1,0,87003,WMM2,1226562,false,false,1522,image-keyboard-response,54
true,12,1,3,0,false,q,true,false,0.0-2.0-0.53-0.479-3.479,1,0,1,90,false,stim,false,0,519,1,0,2,87003,WMM2,1228614,false,false,1525,image-keyboard-response,55
true,12,0,3,0,true,q,false,true,0.0-2.0-0.53-0.480-3.480,1,0,1,81,false,stim,false,0,669,1,1,0,87003,WMM2,1230824,false,false,1528,image-keyboard-response,56
true,13,0,4,0,true,q,false,true,0.0-2.0-0.53-0.481-3.481,1,1,0,81,true,stim,false,0,586,1,0,2,87003,WMM2,1232953,false,false,1531,image-keyboard-response,1
true,13,0,4,0,true,q,false,false,0.0-2.0-0.53-0.482-3.482,1,1,0,81,false,stim,false,0,953,1,1,0,87003,WMM2,1235437,false,true,1534,image-keyboard-response,2
true,13,0,4,0,true,q,false,true,0.0-2.0-0.53-0.483-3.483,1,1,0,81,false,stim,false,0,575,1,0,2,87003,WMM2,1237531,false,false,1537,image-keyboard-response,3
true,13,1,4,1,true,z,false,false,0.0-2.0-0.53-0.484-3.484,1,1,0,90,false,stim,false,1,1795,1,1,1,87003,WMM2,1240871,false,true,1540,image-keyboard-response,4
true,13,0,4,1,false,z,true,false,0.0-2.0-0.53-0.485-3.485,1,1,0,81,false,stim,false,1,685,1,1,1,87003,WMM2,1243090,false,false,1543,image-keyboard-response,5
true,13,0,4,0,true,q,false,false,0.0-2.0-0.54-0.486-3.486,1,1,0,81,false,stim,false,0,658,1,1,0,87003,WMM2,1245282,false,true,1546,image-keyboard-response,6
true,13,2,4,1,false,z,true,true,0.0-2.0-0.54-0.487-3.487,1,1,0,68,false,stim,false,1,989,1,1,1,87003,WMM2,1247805,false,true,1549,image-keyboard-response,7
true,13,2,4,0,false,q,true,false,0.0-2.0-0.54-0.488-3.488,1,1,0,68,false,stim,false,0,921,1,1,0,87003,WMM2,1250258,false,false,1552,image-keyboard-response,8
true,13,2,4,1,false,z,true,true,0.0-2.0-0.54-0.489-3.489,1,1,0,68,false,stim,false,1,894,1,1,1,87003,WMM2,1252680,false,true,1555,image-keyboard-response,9
true,13,2,4,1,false,z,true,false,0.0-2.0-0.54-0.490-3.490,1,1,0,68,false,stim,false,1,694,1,1,1,87003,WMM2,1254919,false,false,1558,image-keyboard-response,10
true,13,0,4,0,true,q,false,true,0.0-2.0-0.54-0.491-3.491,1,1,0,81,false,stim,false,0,1070,1,0,2,87003,WMM2,1257515,false,false,1561,image-keyboard-response,11
true,13,0,4,0,true,q,false,true,0.0-2.0-0.54-0.492-3.492,1,1,0,81,false,stim,false,0,604,1,0,2,87003,WMM2,1259659,false,false,1564,image-keyboard-response,12
true,13,0,4,0,true,q,false,false,0.0-2.0-0.54-0.493-3.493,1,1,0,81,false,stim,false,0,535,1,0,2,87003,WMM2,1261711,false,true,1567,image-keyboard-response,13
true,13,1,4,0,false,q,true,true,0.0-2.0-0.54-0.494-3.494,1,1,0,90,false,stim,false,0,1490,1,1,0,87003,WMM2,1264746,false,true,1570,image-keyboard-response,14
true,13,0,4,0,true,q,false,true,0.0-2.0-0.55-0.495-3.495,1,1,0,81,false,stim,false,0,649,1,0,2,87003,WMM2,1266924,false,false,1573,image-keyboard-response,15
true,13,1,4,1,true,z,false,true,0.0-2.0-0.55-0.496-3.496,1,1,0,90,false,stim,false,1,706,1,1,1,87003,WMM2,1269172,false,false,1576,image-keyboard-response,16
true,13,1,4,1,true,z,false,true,0.0-2.0-0.55-0.497-3.497,1,1,0,90,false,stim,false,1,565,1,1,1,87003,WMM2,1271271,false,false,1579,image-keyboard-response,17
true,13,0,4,0,true,q,false,true,0.0-2.0-0.55-0.498-3.498,1,1,0,81,false,stim,false,0,601,1,0,2,87003,WMM2,1273406,false,false,1582,image-keyboard-response,18
true,13,1,4,0,false,q,true,false,0.0-2.0-0.55-0.499-3.499,1,1,0,90,false,stim,false,0,427,1,1,0,87003,WMM2,1275373,false,false,1585,image-keyboard-response,19
true,13,1,4,1,true,z,false,true,0.0-2.0-0.55-0.500-3.500,1,1,0,90,false,stim,false,1,584,1,1,1,87003,WMM2,1277490,false,false,1588,image-keyboard-response,20
true,13,1,4,0,false,q,true,false,0.0-2.0-0.55-0.501-3.501,1,1,0,90,false,stim,false,0,381,1,1,0,87003,WMM2,1279406,false,false,1591,image-keyboard-response,21
true,13,0,4,0,true,q,false,true,0.0-2.0-0.55-0.502-3.502,1,1,0,81,false,stim,false,0,536,1,1,0,87003,WMM2,1281482,false,false,1594,image-keyboard-response,22
true,13,0,4,0,true,q,false,true,0.0-2.0-0.55-0.503-3.503,1,1,0,81,false,stim,false,0,790,1,0,2,87003,WMM2,1283816,false,false,1597,image-keyboard-response,23
true,13,1,4,1,true,z,false,true,0.0-2.0-0.56-0.504-3.504,1,1,0,90,false,stim,false,1,687,1,1,1,87003,WMM2,1286055,false,false,1600,image-keyboard-response,24
true,13,0,4,0,true,q,false,true,0.0-2.0-0.56-0.505-3.505,1,1,0,81,false,stim,false,0,642,1,1,0,87003,WMM2,1288260,false,false,1603,image-keyboard-response,25
true,13,0,4,0,true,q,false,true,0.0-2.0-0.56-0.506-3.506,1,1,0,81,false,stim,false,0,491,1,1,0,87003,WMM2,1290306,false,false,1606,image-keyboard-response,26
true,13,1,4,1,true,z,false,true,0.0-2.0-0.56-0.507-3.507,1,1,0,90,false,stim,false,1,582,1,1,1,87003,WMM2,1292419,false,false,1609,image-keyboard-response,27
true,13,0,4,0,true,q,false,true,0.0-2.0-0.56-0.508-3.508,1,1,0,81,false,stim,false,0,736,1,0,2,87003,WMM2,1294683,false,false,1612,image-keyboard-response,28
true,13,0,4,0,true,q,false,true,0.0-2.0-0.56-0.509-3.509,1,1,0,81,false,stim,false,0,562,1,0,2,87003,WMM2,1296774,false,false,1615,image-keyboard-response,29
true,13,1,4,0,false,q,true,false,0.0-2.0-0.56-0.510-3.510,1,1,0,90,false,stim,false,0,600,1,1,0,87003,WMM2,1298915,false,false,1618,image-keyboard-response,30
true,13,0,4,1,false,z,true,true,0.0-2.0-0.56-0.511-3.511,1,1,0,81,false,stim,false,1,564,1,1,1,87003,WMM2,1301018,false,true,1621,image-keyboard-response,31
true,13,0,4,0,true,q,false,true,0.0-2.0-0.56-0.512-3.512,1,1,0,81,false,stim,false,0,1309,1,0,2,87003,WMM2,1303855,false,false,1624,image-keyboard-response,32
true,13,0,4,0,true,q,false,true,0.0-2.0-0.57-0.513-3.513,1,1,0,81,false,stim,false,0,1386,1,1,0,87003,WMM2,1306771,false,false,1627,image-keyboard-response,33
true,13,1,4,1,true,z,false,true,0.0-2.0-0.57-0.514-3.514,1,1,0,90,false,stim,false,1,943,1,1,1,87003,WMM2,1309250,false,false,1630,image-keyboard-response,34
true,13,0,4,0,true,q,false,true,0.0-2.0-0.57-0.515-3.515,1,1,0,81,false,stim,false,0,453,1,1,0,87003,WMM2,1311241,false,false,1633,image-keyboard-response,35
true,14,0,0,1,false,z,true,false,0.0-2.0-0.57-0.516-3.516,1,1,0,81,true,stim,false,1,905,1,1,1,87003,WMM2,1435785,false,false,1756,image-keyboard-response,1
true,14,1,0,1,true,z,false,true,0.0-2.0-0.57-0.517-3.517,1,1,0,90,false,stim,false,1,959,1,1,1,87003,WMM2,1438276,false,false,1759,image-keyboard-response,2
true,14,2,0,0,false,q,true,false,0.0-2.0-0.57-0.518-3.518,1,1,0,68,false,stim,false,0,676,1,0,2,87003,WMM2,1440494,false,false,1762,image-keyboard-response,3
true,14,0,0,0,true,q,false,true,0.0-2.0-0.57-0.519-3.519,1,1,0,81,false,stim,false,0,611,1,1,0,87003,WMM2,1442648,false,false,1765,image-keyboard-response,4
true,14,1,0,0,false,q,true,false,0.0-2.0-0.57-0.520-3.520,1,1,0,90,false,stim,false,0,1433,1,0,2,87003,WMM2,1445610,false,false,1768,image-keyboard-response,5
true,14,0,0,0,true,q,false,true,0.0-2.0-0.57-0.521-3.521,1,1,0,81,false,stim,false,0,478,1,0,2,87003,WMM2,1447626,false,false,1771,image-keyboard-response,6
true,14,1,0,1,true,z,false,true,0.0-2.0-0.58-0.522-3.522,1,1,0,90,false,stim,false,1,415,1,1,1,87003,WMM2,1449573,false,false,1774,image-keyboard-response,7
true,14,0,0,0,true,q,false,true,0.0-2.0-0.58-0.523-3.523,1,1,0,81,false,stim,false,0,685,1,0,2,87003,WMM2,1451793,false,false,1777,image-keyboard-response,8
true,14,1,0,1,true,z,false,true,0.0-2.0-0.58-0.524-3.524,1,1,0,90,false,stim,false,1,724,1,1,1,87003,WMM2,1454050,false,false,1780,image-keyboard-response,9
true,14,0,0,0,true,q,false,true,0.0-2.0-0.58-0.525-3.525,1,1,0,81,false,stim,false,0,692,1,0,2,87003,WMM2,1456278,false,false,1783,image-keyboard-response,10
true,14,0,0,0,true,q,false,true,0.0-2.0-0.58-0.526-3.526,1,1,0,81,false,stim,false,0,557,1,0,2,87003,WMM2,1458363,false,false,1786,image-keyboard-response,11
true,14,0,0,0,true,q,false,true,0.0-2.0-0.58-0.527-3.527,1,1,0,81,false,stim,false,0,369,1,1,0,87003,WMM2,1460266,false,false,1789,image-keyboard-response,12
true,14,1,0,1,true,z,false,true,0.0-2.0-0.58-0.528-3.528,1,1,0,90,false,stim,false,1,420,1,1,1,87003,WMM2,1462217,false,false,1792,image-keyboard-response,13
true,14,0,0,0,true,q,false,true,0.0-2.0-0.58-0.529-3.529,1,1,0,81,false,stim,false,0,576,1,1,0,87003,WMM2,1464333,false,false,1795,image-keyboard-response,14
true,14,0,0,0,true,q,false,true,0.0-2.0-0.58-0.530-3.530,1,1,0,81,false,stim,false,0,643,1,1,0,87003,WMM2,1466508,false,false,1798,image-keyboard-response,15
true,14,1,0,1,true,z,false,false,0.0-2.0-0.59-0.531-3.531,1,1,0,90,false,stim,false,1,612,1,1,1,87003,WMM2,1468687,false,true,1801,image-keyboard-response,16
true,14,0,0,0,true,q,false,false,0.0-2.0-0.59-0.532-3.532,1,1,0,81,false,stim,false,0,474,1,0,2,87003,WMM2,1470701,false,true,1804,image-keyboard-response,17
true,14,0,0,0,true,q,false,true,0.0-2.0-0.59-0.533-3.533,1,1,0,81,false,stim,false,0,826,1,1,0,87003,WMM2,1473071,false,false,1807,image-keyboard-response,18
true,14,0,0,0,true,q,false,true,0.0-2.0-0.59-0.534-3.534,1,1,0,81,false,stim,false,0,502,1,0,2,87003,WMM2,1475107,false,false,1810,image-keyboard-response,19
true,14,0,0,0,true,q,false,true,0.0-2.0-0.59-0.535-3.535,1,1,0,81,false,stim,false,0,700,1,1,0,87003,WMM2,1477348,false,false,1813,image-keyboard-response,20
true,14,1,0,1,true,z,false,true,0.0-2.0-0.59-0.536-3.536,1,1,0,90,false,stim,false,1,1270,1,1,1,87003,WMM2,1480177,false,false,1816,image-keyboard-response,21
true,14,1,0,1,true,z,false,true,0.0-2.0-0.59-0.537-3.537,1,1,0,90,false,stim,false,1,563,1,1,1,87003,WMM2,1482269,false,false,1819,image-keyboard-response,22
true,14,0,0,0,true,q,false,true,0.0-2.0-0.59-0.538-3.538,1,1,0,81,false,stim,false,0,553,1,1,2,87003,WMM2,1484367,false,false,1822,image-keyboard-response,23
true,14,0,0,0,true,q,false,true,0.0-2.0-0.59-0.539-3.539,1,1,0,81,false,stim,false,0,881,1,0,0,87003,WMM2,1486778,false,false,1825,image-keyboard-response,24
true,14,1,0,1,true,z,false,true,0.0-2.0-0.60-0.540-3.540,1,1,0,90,false,stim,false,1,556,1,1,1,87003,WMM2,1488870,false,false,1828,image-keyboard-response,25
true,14,0,0,0,true,q,false,true,0.0-2.0-0.60-0.541-3.541,1,1,0,81,false,stim,false,0,633,1,0,0,87003,WMM2,1491049,false,false,1831,image-keyboard-response,26
true,14,0,0,0,true,q,false,true,0.0-2.0-0.60-0.542-3.542,1,1,0,81,false,stim,false,0,690,1,0,0,87003,WMM2,1493286,false,false,1834,image-keyboard-response,27
true,14,0,0,0,true,q,false,false,0.0-2.0-0.60-0.543-3.543,1,1,0,81,false,stim,false,0,772,1,1,2,87003,WMM2,1495586,false,true,1837,image-keyboard-response,28
true,14,1,0,0,false,q,true,false,0.0-2.0-0.60-0.544-3.544,1,1,0,90,false,stim,false,0,594,1,1,2,87003,WMM2,1497720,false,false,1840,image-keyboard-response,29
true,14,0,0,0,true,q,false,false,0.0-2.0-0.60-0.545-3.545,1,1,0,81,false,stim,false,0,452,1,1,2,87003,WMM2,1499697,false,true,1843,image-keyboard-response,30
true,15,1,2,1,true,z,false,true,0.0-2.0-0.60-0.546-3.546,0,1,1,90,true,stim,false,1,590,1,1,1,87003,WMM2,1501816,false,false,1846,image-keyboard-response,1
true,15,1,2,1,true,z,false,true,0.0-2.0-0.60-0.547-3.547,0,1,1,90,false,stim,false,1,659,1,1,1,87003,WMM2,1504004,false,false,1849,image-keyboard-response,2
true,15,0,2,2,false,d,false,false,0.0-2.0-0.60-0.548-3.548,0,1,1,81,false,stim,true,0,547,1,0,0,87003,WMM2,1506073,false,false,1852,image-keyboard-response,3
true,15,2,2,1,false,z,true,false,0.0-2.0-0.61-0.549-3.549,0,1,1,68,false,stim,false,1,608,1,1,1,87003,WMM2,1508214,false,false,1855,image-keyboard-response,4
true,15,0,2,2,false,d,false,true,0.0-2.0-0.61-0.550-3.550,0,1,1,81,false,stim,true,0,706,1,0,0,87003,WMM2,1510452,false,true,1858,image-keyboard-response,5
true,15,2,2,0,false,q,true,false,0.0-2.0-0.61-0.551-3.551,0,1,1,68,false,stim,false,0,486,1,1,2,87003,WMM2,1512472,false,false,1861,image-keyboard-response,6
true,15,1,2,1,true,z,false,true,0.0-2.0-0.61-0.552-3.552,0,1,1,90,false,stim,false,1,626,1,1,1,87003,WMM2,1514633,false,false,1864,image-keyboard-response,7
true,15,1,2,1,true,z,false,false,0.0-2.0-0.61-0.553-3.553,0,1,1,90,false,stim,false,1,446,1,1,1,87003,WMM2,1516611,false,true,1867,image-keyboard-response,8
true,15,0,2,2,false,d,false,false,0.0-2.0-0.61-0.554-3.554,0,1,1,81,false,stim,true,0,585,1,0,0,87003,WMM2,1518732,false,false,1870,image-keyboard-response,9
true,15,0,2,2,false,d,false,false,0.0-2.0-0.61-0.555-3.555,0,1,1,81,false,stim,true,0,620,1,0,0,87003,WMM2,1520884,false,false,1873,image-keyboard-response,10
true,15,1,2,0,false,q,true,false,0.0-2.0-0.61-0.556-3.556,0,1,1,90,false,stim,false,0,770,1,1,2,87003,WMM2,1523186,false,false,1876,image-keyboard-response,11
true,15,0,2,0,true,q,false,true,0.0-2.0-0.61-0.557-3.557,0,1,1,81,false,stim,false,0,1291,1,1,2,87003,WMM2,1526010,false,false,1879,image-keyboard-response,12
true,15,1,2,1,true,z,false,true,0.0-2.0-0.62-0.558-3.558,0,1,1,90,false,stim,false,1,769,1,1,1,87003,WMM2,1528315,false,false,1882,image-keyboard-response,13
true,15,0,2,2,false,d,false,false,0.0-2.0-0.62-0.559-3.559,0,1,1,81,false,stim,true,0,1040,1,0,0,87003,WMM2,1530887,false,false,1885,image-keyboard-response,14
true,15,1,2,1,true,z,false,true,0.0-2.0-0.62-0.560-3.560,0,1,1,90,false,stim,false,1,551,1,1,1,87003,WMM2,1532966,false,false,1888,image-keyboard-response,15
true,15,1,2,1,true,z,false,true,0.0-2.0-0.62-0.561-3.561,0,1,1,90,false,stim,false,1,659,1,1,1,87003,WMM2,1535156,false,false,1891,image-keyboard-response,16
true,15,0,2,0,true,q,false,true,0.0-2.0-0.62-0.562-3.562,0,1,1,81,false,stim,false,0,2046,1,1,2,87003,WMM2,1538741,false,false,1894,image-keyboard-response,17
true,15,0,2,0,true,q,false,true,0.0-2.0-0.62-0.563-3.563,0,1,1,81,false,stim,false,0,650,1,1,2,87003,WMM2,1540924,false,false,1897,image-keyboard-response,18
true,15,0,2,0,true,q,false,true,0.0-2.0-0.62-0.564-3.564,0,1,1,81,false,stim,false,0,537,1,1,2,87003,WMM2,1543005,false,false,1900,image-keyboard-response,19
true,15,2,2,2,true,d,false,true,0.0-2.0-0.62-0.565-3.565,0,1,1,68,false,stim,false,0,547,1,0,0,87003,WMM2,1545112,false,false,1903,image-keyboard-response,20
true,15,2,2,2,true,d,false,true,0.0-2.0-0.62-0.566-3.566,0,1,1,68,false,stim,false,0,556,1,0,0,87003,WMM2,1547220,false,false,1906,image-keyboard-response,21
true,15,0,2,0,true,q,false,false,0.0-2.0-0.63-0.567-3.567,0,1,1,81,false,stim,false,0,1049,1,0,2,87003,WMM2,1549816,false,true,1909,image-keyboard-response,22
true,15,2,2,2,true,d,false,true,0.0-2.0-0.63-0.568-3.568,0,1,1,68,false,stim,false,0,744,1,1,0,87003,WMM2,1552089,false,false,1912,image-keyboard-response,23
true,15,0,2,0,true,q,false,false,0.0-2.0-0.63-0.569-3.569,0,1,1,81,false,stim,false,0,470,1,0,2,87003,WMM2,1554093,false,true,1915,image-keyboard-response,24
true,15,1,2,1,true,z,false,true,0.0-2.0-0.63-0.570-3.570,0,1,1,90,false,stim,false,1,546,1,1,1,87003,WMM2,1556182,false,false,1918,image-keyboard-response,25
true,15,1,2,1,true,z,false,true,0.0-2.0-0.63-0.571-3.571,0,1,1,90,false,stim,false,1,610,1,1,1,87003,WMM2,1558336,false,false,1921,image-keyboard-response,26
true,15,2,2,2,true,d,false,true,0.0-2.0-0.63-0.572-3.572,0,1,1,68,false,stim,false,0,503,1,1,0,87003,WMM2,1560378,false,false,1924,image-keyboard-response,27
true,15,1,2,1,true,z,false,true,0.0-2.0-0.63-0.573-3.573,0,1,1,90,false,stim,false,1,890,1,1,1,87003,WMM2,1562805,false,false,1927,image-keyboard-response,28
true,15,2,2,0,false,q,true,false,0.0-2.0-0.63-0.574-3.574,0,1,1,68,false,stim,false,0,574,1,0,2,87003,WMM2,1564919,false,false,1930,image-keyboard-response,29
true,15,2,2,2,true,d,false,false,0.0-2.0-0.63-0.575-3.575,0,1,1,68,false,stim,false,0,898,1,1,0,87003,WMM2,1567354,false,true,1933,image-keyboard-response,30
true,15,1,2,2,false,d,true,true,0.0-2.0-0.64-0.576-3.576,0,1,1,90,false,stim,false,0,1929,1,1,0,87003,WMM2,1570825,false,true,1936,image-keyboard-response,31
true,16,1,3,2,false,d,true,false,0.0-2.0-0.64-0.577-3.577,1,1,0,90,true,stim,false,2,650,1,1,0,87003,WMM2,1573004,false,false,1939,image-keyboard-response,1
true,16,1,3,1,true,z,false,true,0.0-2.0-0.64-0.578-3.578,1,1,0,90,false,stim,false,1,589,1,1,1,87003,WMM2,1575119,false,false,1942,image-keyboard-response,2
true,16,2,3,2,true,d,false,true,0.0-2.0-0.64-0.579-3.579,1,1,0,68,false,stim,false,2,682,1,1,0,87003,WMM2,1577337,false,false,1945,image-keyboard-response,3
true,16,1,3,1,true,z,false,true,0.0-2.0-0.64-0.580-3.580,1,1,0,90,false,stim,false,1,878,1,1,1,87003,WMM2,1579753,false,false,1948,image-keyboard-response,4
true,16,1,3,2,false,d,true,true,0.0-2.0-0.64-0.581-3.581,1,1,0,90,false,stim,false,0,1204,1,0,2,87003,WMM2,1582501,false,true,1951,image-keyboard-response,5
true,16,1,3,1,true,z,false,true,0.0-2.0-0.64-0.582-3.582,1,1,0,90,false,stim,false,1,569,1,1,1,87003,WMM2,1584613,false,false,1954,image-keyboard-response,6
true,16,1,3,2,false,d,true,false,0.0-2.0-0.64-0.583-3.583,1,1,0,90,false,stim,false,0,523,1,0,2,87003,WMM2,1586668,false,false,1957,image-keyboard-response,7
true,16,1,3,2,false,d,true,false,0.0-2.0-0.64-0.584-3.584,1,1,0,90,false,stim,false,0,752,1,0,2,87003,WMM2,1588957,false,false,1960,image-keyboard-response,8
true,16,2,3,2,true,d,false,false,0.0-2.0-0.65-0.585-3.585,1,1,0,68,false,stim,false,2,923,1,1,0,87003,WMM2,1591409,false,true,1963,image-keyboard-response,9
true,16,1,3,1,true,z,false,true,0.0-2.0-0.65-0.586-3.586,1,1,0,90,false,stim,false,1,819,1,1,1,87003,WMM2,1593765,false,false,1966,image-keyboard-response,10
true,16,0,3,2,false,d,false,false,0.0-2.0-0.65-0.587-3.587,1,1,0,81,false,stim,true,0,635,1,0,2,87003,WMM2,1595939,false,false,1969,image-keyboard-response,11
true,16,1,3,2,false,d,true,false,0.0-2.0-0.65-0.588-3.588,1,1,0,90,false,stim,false,2,2144,1,1,0,87003,WMM2,1599619,false,false,1972,image-keyboard-response,12
true,16,1,3,2,false,d,true,false,0.0-2.0-0.65-0.589-3.589,1,1,0,90,false,stim,false,0,1928,1,0,2,87003,WMM2,1603084,false,false,1975,image-keyboard-response,13
true,16,2,3,2,true,d,false,true,0.0-2.0-0.65-0.590-3.590,1,1,0,68,false,stim,false,2,519,1,1,0,87003,WMM2,1605136,false,false,1978,image-keyboard-response,14
true,16,1,3,1,true,z,false,true,0.0-2.0-0.65-0.591-3.591,1,1,0,90,false,stim,false,1,628,1,1,1,87003,WMM2,1607294,false,false,1981,image-keyboard-response,15
true,16,1,3,1,true,z,false,false,0.0-2.0-0.65-0.592-3.592,1,1,0,90,false,stim,false,1,573,1,1,1,87003,WMM2,1609402,false,true,1984,image-keyboard-response,16
true,16,2,3,2,true,d,false,true,0.0-2.0-0.65-0.593-3.593,1,1,0,68,false,stim,false,0,475,1,0,2,87003,WMM2,1611422,false,false,1987,image-keyboard-response,17
true,16,2,3,2,true,d,false,true,0.0-2.0-0.66-0.594-3.594,1,1,0,68,false,stim,false,2,527,1,1,0,87003,WMM2,1613493,false,false,1990,image-keyboard-response,18
true,16,0,3,1,false,z,true,false,0.0-2.0-0.66-0.595-3.595,1,1,0,81,false,stim,false,1,2008,1,1,1,87003,WMM2,1617033,false,false,1993,image-keyboard-response,19
true,16,2,3,2,true,d,false,true,0.0-2.0-0.66-0.596-3.596,1,1,0,68,false,stim,false,2,728,1,1,0,87003,WMM2,1619294,false,false,1996,image-keyboard-response,20
true,16,2,3,2,true,d,false,true,0.0-2.0-0.66-0.597-3.597,1,1,0,68,false,stim,false,0,477,1,0,2,87003,WMM2,1621334,false,false,1999,image-keyboard-response,21
true,16,2,3,2,true,d,false,true,0.0-2.0-0.66-0.598-3.598,1,1,0,68,false,stim,false,0,827,1,0,2,87003,WMM2,1623724,false,false,2002,image-keyboard-response,22
true,16,2,3,2,true,d,false,true,0.0-2.0-0.66-0.599-3.599,1,1,0,68,false,stim,false,2,357,1,1,0,87003,WMM2,1625633,false,false,2005,image-keyboard-response,23
true,16,2,3,2,true,d,false,true,0.0-2.0-0.66-0.600-3.600,1,1,0,68,false,stim,false,0,529,1,0,2,87003,WMM2,1627705,false,false,2008,image-keyboard-response,24
true,16,1,3,1,true,z,false,true,0.0-2.0-0.66-0.601-3.601,1,1,0,90,false,stim,false,1,539,1,1,1,87003,WMM2,1629773,false,false,2011,image-keyboard-response,25
true,16,1,3,1,true,z,false,true,0.0-2.0-0.66-0.602-3.602,1,1,0,90,false,stim,false,1,581,1,1,1,87003,WMM2,1631896,false,false,2014,image-keyboard-response,26
true,16,2,3,2,true,d,false,true,0.0-2.0-0.67-0.603-3.603,1,1,0,68,false,stim,false,2,697,1,0,0,87003,WMM2,1634143,false,false,2017,image-keyboard-response,27
true,16,2,3,2,true,d,false,true,0.0-2.0-0.67-0.604-3.604,1,1,0,68,false,stim,false,2,408,1,0,0,87003,WMM2,1636080,false,false,2020,image-keyboard-response,28
true,16,2,3,2,true,d,false,false,0.0-2.0-0.67-0.605-3.605,1,1,0,68,false,stim,false,0,417,1,1,2,87003,WMM2,1638030,false,true,2023,image-keyboard-response,29
true,16,2,3,2,true,d,false,true,0.0-2.0-0.67-0.606-3.606,1,1,0,68,false,stim,false,0,502,1,1,2,87003,WMM2,1640058,false,false,2026,image-keyboard-response,30
true,16,1,3,1,true,z,false,true,0.0-2.0-0.67-0.607-3.607,1,1,0,90,false,stim,false,1,1243,1,1,1,87003,WMM2,1642837,false,false,2029,image-keyboard-response,31
true,16,1,3,1,true,z,false,true,0.0-2.0-0.67-0.608-3.608,1,1,0,90,false,stim,false,1,587,1,1,1,87003,WMM2,1644963,false,false,2032,image-keyboard-response,32
true,16,2,3,2,true,d,false,true,0.0-2.0-0.67-0.609-3.609,1,1,0,68,false,stim,false,0,667,1,1,2,87003,WMM2,1647163,false,false,2035,image-keyboard-response,33
true,16,1,3,1,true,z,false,true,0.0-2.0-0.67-0.610-3.610,1,1,0,90,false,stim,false,1,615,1,1,1,87003,WMM2,1649311,false,false,2038,image-keyboard-response,34
true,16,2,3,2,true,d,false,false,0.0-2.0-0.67-0.611-3.611,1,1,0,68,false,stim,false,2,631,1,0,0,87003,WMM2,1651485,false,true,2041,image-keyboard-response,35
true,16,1,3,1,true,z,false,true,0.0-2.0-0.68-0.612-3.612,1,1,0,90,false,stim,false,1,1282,1,1,1,87003,WMM2,1654294,false,false,2044,image-keyboard-response,36
true,17,2,2,2,true,d,false,true,0.0-2.0-0.68-0.613-3.613,0,1,1,68,true,stim,false,2,625,1,1,2,87003,WMM2,1656470,false,false,2047,image-keyboard-response,1
true,17,0,2,1,false,z,true,false,0.0-2.0-0.68-0.614-3.614,0,1,1,81,false,stim,false,2,357,1,0,0,87003,WMM2,1658363,false,false,2050,image-keyboard-response,2
true,17,1,2,1,true,z,false,true,0.0-2.0-0.68-0.615-3.615,0,1,1,90,false,stim,false,1,972,1,1,1,87003,WMM2,1660875,false,false,2053,image-keyboard-response,3
true,17,2,2,1,false,z,false,false,0.0-2.0-0.68-0.616-3.616,0,1,1,68,false,stim,true,2,402,1,0,0,87003,WMM2,1662807,false,false,2056,image-keyboard-response,4
true,17,2,2,2,true,d,false,true,0.0-2.0-0.68-0.617-3.617,0,1,1,68,false,stim,false,2,1081,1,1,2,87003,WMM2,1665429,false,false,2059,image-keyboard-response,5
true,17,1,2,1,true,z,false,false,0.0-2.0-0.68-0.618-3.618,0,1,1,90,false,stim,false,1,659,1,1,1,87003,WMM2,1667626,false,true,2062,image-keyboard-response,6
true,17,2,2,2,true,d,false,true,0.0-2.0-0.68-0.619-3.619,0,1,1,68,false,stim,false,2,686,1,1,2,87003,WMM2,1669840,false,false,2065,image-keyboard-response,7
true,17,1,2,1,true,z,false,true,0.0-2.0-0.68-0.620-3.620,0,1,1,90,false,stim,false,2,449,1,0,0,87003,WMM2,1671827,false,false,2068,image-keyboard-response,8
true,17,2,2,2,true,d,false,true,0.0-2.0-0.69-0.621-3.621,0,1,1,68,false,stim,false,2,700,1,1,2,87003,WMM2,1674046,false,false,2071,image-keyboard-response,9
true,17,2,2,2,true,d,false,false,0.0-2.0-0.69-0.622-3.622,0,1,1,68,false,stim,false,2,1003,1,1,2,87003,WMM2,1676589,false,true,2074,image-keyboard-response,10
true,17,1,2,1,true,z,false,true,0.0-2.0-0.69-0.623-3.623,0,1,1,90,false,stim,false,2,461,1,0,0,87003,WMM2,1678596,false,false,2077,image-keyboard-response,11
true,17,0,2,1,false,z,true,false,0.0-2.0-0.69-0.624-3.624,0,1,1,81,false,stim,false,1,408,1,1,1,87003,WMM2,1680543,false,false,2080,image-keyboard-response,12
true,17,1,2,1,true,z,false,true,0.0-2.0-0.69-0.625-3.625,0,1,1,90,false,stim,false,1,542,1,1,1,87003,WMM2,1682615,false,false,2083,image-keyboard-response,13
true,17,1,2,1,true,z,false,false,0.0-2.0-0.69-0.626-3.626,0,1,1,90,false,stim,false,2,493,1,0,0,87003,WMM2,1684648,false,true,2086,image-keyboard-response,14
true,17,1,2,1,true,z,false,true,0.0-2.0-0.69-0.627-3.627,0,1,1,90,false,stim,false,2,358,1,0,0,87003,WMM2,1686553,false,false,2089,image-keyboard-response,15
true,17,1,2,1,true,z,false,true,0.0-2.0-0.69-0.628-3.628,0,1,1,90,false,stim,false,1,783,1,1,1,87003,WMM2,1688867,false,false,2092,image-keyboard-response,16
true,17,2,2,2,true,d,false,true,0.0-2.0-0.69-0.629-3.629,0,1,1,68,false,stim,false,2,624,1,1,2,87003,WMM2,1691032,false,false,2095,image-keyboard-response,17
true,17,2,2,2,true,d,false,true,0.0-2.0-0.70-0.630-3.630,0,1,1,68,false,stim,false,2,1073,1,1,2,87003,WMM2,1693650,false,false,2098,image-keyboard-response,18
true,17,1,2,1,true,z,false,true,0.0-2.0-0.70-0.631-3.631,0,1,1,90,false,stim,false,2,715,1,0,0,87003,WMM2,1695944,false,false,2101,image-keyboard-response,19
true,17,2,2,2,true,d,false,false,0.0-2.0-0.70-0.632-3.632,0,1,1,68,false,stim,false,2,588,1,1,2,87003,WMM2,1698063,false,true,2104,image-keyboard-response,20
true,17,2,2,2,true,d,false,false,0.0-2.0-0.70-0.633-3.633,0,1,1,68,false,stim,false,2,872,1,1,2,87003,WMM2,1700488,false,true,2107,image-keyboard-response,21
true,17,1,2,1,true,z,false,false,0.0-2.0-0.70-0.634-3.634,0,1,1,90,false,stim,false,2,536,1,1,0,87003,WMM2,1702562,false,true,2110,image-keyboard-response,22
true,17,1,2,1,true,z,false,true,0.0-2.0-0.70-0.635-3.635,0,1,1,90,false,stim,false,1,782,1,0,1,87003,WMM2,1704885,false,false,2113,image-keyboard-response,23
true,17,1,2,1,true,z,false,true,0.0-2.0-0.70-0.636-3.636,0,1,1,90,false,stim,false,1,679,1,0,1,87003,WMM2,1707105,false,false,2116,image-keyboard-response,24
true,17,1,2,1,true,z,false,false,0.0-2.0-0.70-0.637-3.637,0,1,1,90,false,stim,false,1,546,1,0,1,87003,WMM2,1709183,false,true,2119,image-keyboard-response,25
true,17,1,2,1,true,z,false,true,0.0-2.0-0.70-0.638-3.638,0,1,1,90,false,stim,false,2,400,1,1,0,87003,WMM2,1711117,false,false,2122,image-keyboard-response,26
