answered,blockNum,choice,condition,corResp,correct,correct_response,explo,fb,internal_node_id,isStable_1,isStable_2,isStable_3,key_press,newBlock,part,persev,persevResp,rt,sessNum,stableAS,stimulus,subject,task,time_elapsed,training,trap,trial_index,trial_type,trialsInBlock
true,1,0,0,0,true,q,false,true,0.0-2.0-0.0-0.0-3.0,0,0,0,81,true,stim,false,-1,944,3,0,2,88960,WMM2,145473,false,false,91,image-keyboard-response,1
true,1,0,0,0,true,q,false,true,0.0-2.0-0.0-0.1-3.1,0,0,0,81,false,stim,false,-1,491,3,0,2,88960,WMM2,147488,false,false,94,image-keyboard-response,2
true,1,1,0,0,false,q,true,false,0.0-2.0-0.0-0.2-3.2,0,0,0,90,false,stim,false,-1,799,3,0,1,88960,WMM2,149817,false,false,97,image-keyboard-response,3
true,1,0,0,0,true,q,false,true,0.0-2.0-0.0-0.3-3.3,0,0,0,81,false,stim,false,-1,487,3,0,1,88960,WMM2,151832,false,false,100,image-keyboard-response,4
true,1,2,0,2,true,d,false,true,0.0-2.0-0.0-0.4-3.4,0,0,0,68,false,stim,false,-1,676,3,0,0,88960,WMM2,154039,false,false,103,image-keyboard-response,5
true,1,2,0,2,true,d,false,true,0.0-2.0-0.0-0.5-3.5,0,0,0,68,false,stim,false,-1,610,3,0,0,88960,WMM2,156177,false,false,106,image-keyboard-response,6
true,1,0,0,0,true,q,false,true,0.0-2.0-0.0-0.6-3.6,0,0,0,81,false,stim,false,-1,522,3,0,1,88960,WMM2,158209,false,false,109,image-keyboard-response,7
true,1,2,0,2,true,d,false,true,0.0-2.0-0.0-0.7-3.7,0,0,0,68,false,stim,false,-1,690,3,0,0,88960,WMM2,160428,false,false,112,image-keyboard-response,8
true,1,0,0,0,true,q,false,true,0.0-2.0-0.0-0.8-3.8,0,0,0,81,false,stim,false,-1,588,3,0,2,88960,WMM2,162534,false,false,115,image-keyboard-response,9
true,1,2,0,2,true,d,false,true,0.0-2.0-0.1-0.9-3.9,0,0,0,68,false,stim,false,-1,421,3,0,0,88960,WMM2,164489,false,false,118,image-keyboard-response,10
true,1,2,0,2,true,d,false,true,0.0-2.0-0.1-0.10-3.10,0,0,0,68,false,stim,false,-1,635,3,0,0,88960,WMM2,166653,false,false,121,image-keyboard-response,11
true,1,0,0,0,true,q,false,true,0.0-2.0-0.1-0.11-3.11,0,0,0,81,false,stim,false,-1,523,3,0,2,88960,WMM2,168701,false,false,124,image-keyboard-response,12
true,1,0,0,0,true,q,false,true,0.0-2.0-0.1-0.12-3.12,0,0,0,81,false,stim,false,-1,932,3,0,1,88960,WMM2,171169,false,false,127,image-keyboard-response,13
true,1,0,0,0,true,q,false,true,0.0-2.0-0.1-0.13-3.13,0,0,0,81,false,stim,false,-1,886,3,0,1,88960,WMM2,173572,false,false,130,image-keyboard-response,14
true,1,2,0,2,true,d,false,true,0.0-2.0-0.1-0.14-3.14,0,0,0,68,false,stim,false,-1,1107,3,0,0,88960,WMM2,176205,false,false,133,image-keyboard-response,15
true,1,0,0,0,true,q,false,true,0.0-2.0-0.1-0.15-3.15,0,0,0,81,false,stim,false,-1,631,3,0,2,88960,WMM2,178364,false,false,136,image-keyboard-response,16
true,1,2,0,0,false,q,true,false,0.0-2.0-0.1-0.16-3.16,0,0,0,68,false,stim,false,-1,1287,3,0,1,88960,WMM2,181175,false,false,139,image-keyboard-response,17
true,1,0,0,0,true,q,false,true,0.0-2.0-0.1-0.17-3.17,0,0,0,81,false,stim,false,-1,527,3,0,2,88960,WMM2,183245,false,false,142,image-keyboard-response,18
true,1,0,0,0,true,q,false,true,0.0-2.0-0.2-0.18-3.18,0,0,0,81,false,stim,false,-1,890,3,0,1,88960,WMM2,185681,false,false,145,image-keyboard-response,19
true,1,2,0,2,true,d,false,true,0.0-2.0-0.2-0.19-3.19,0,0,0,68,false,stim,false,-1,1812,3,0,0,88960,WMM2,189009,false,false,148,image-keyboard-response,20
true,1,0,0,0,true,q,false,true,0.0-2.0-0.2-0.20-3.20,0,0,0,81,false,stim,false,-1,1014,3,0,2,88960,WMM2,191561,false,false,151,image-keyboard-response,21
true,1,2,0,2,true,d,false,true,0.0-2.0-0.2-0.21-3.21,0,0,0,68,false,stim,false,-1,816,3,0,0,88960,WMM2,193913,false,false,154,image-keyboard-response,22
true,1,0,0,0,true,q,false,true,0.0-2.0-0.2-0.22-3.22,0,0,0,81,false,stim,false,-1,745,3,0,2,88960,WMM2,196192,false,false,157,image-keyboard-response,23
true,1,0,0,0,true,q,false,false,0.0-2.0-0.2-0.23-3.23,0,0,0,81,false,stim,false,-1,1511,3,0,1,88960,WMM2,199240,false,true,160,image-keyboard-response,24
true,1,2,0,2,true,d,false,true,0.0-2.0-0.2-0.24-3.24,0,0,0,68,false,stim,false,-1,579,3,0,0,88960,WMM2,201352,false,false,163,image-keyboard-response,25
true,1,0,0,0,true,q,false,true,0.0-2.0-0.2-0.25-3.25,0,0,0,81,false,stim,false,-1,862,3,0,2,88960,WMM2,203749,false,false,166,image-keyboard-response,26
true,1,0,0,0,true,q,false,true,0.0-2.0-0.2-0.26-3.26,0,0,0,81,false,stim,false,-1,662,3,1,1,88960,WMM2,205941,false,false,169,image-keyboard-response,27
true,1,2,0,2,true,d,false,true,0.0-2.0-0.3-0.27-3.27,0,0,0,68,false,stim,false,-1,588,3,0,0,88960,WMM2,208055,false,false,172,image-keyboard-response,28
true,1,0,0,0,true,q,false,true,0.0-2.0-0.3-0.28-3.28,0,0,0,81,false,stim,false,-1,663,3,1,1,88960,WMM2,210241,false,false,175,image-keyboard-response,29
true,1,0,0,0,true,q,false,true,0.0-2.0-0.3-0.29-3.29,0,0,0,81,false,stim,false,-1,443,3,1,1,88960,WMM2,212221,false,false,178,image-keyboard-response,30
true,1,0,0,0,true,q,false,true,0.0-2.0-0.3-0.30-3.30,0,0,0,81,false,stim,false,-1,1565,3,0,2,88960,WMM2,215313,false,false,181,image-keyboard-response,31
true,1,0,0,0,true,q,false,true,0.0-2.0-0.3-0.31-3.31,0,0,0,81,false,stim,false,-1,713,3,1,1,88960,WMM2,217549,false,false,184,image-keyboard-response,32
true,1,2,0,2,true,d,false,true,0.0-2.0-0.3-0.32-3.32,0,0,0,68,false,stim,false,-1,819,3,0,0,88960,WMM2,219906,false,false,187,image-keyboard-response,33
true,1,0,0,0,true,q,false,true,0.0-2.0-0.3-0.33-3.33,0,0,0,81,false,stim,false,-1,577,3,0,2,88960,WMM2,222009,false,false,190,image-keyboard-response,34
true,2,0,1,1,false,z,false,false,0.0-2.0-0.3-0.34-3.34,0,1,0,81,true,stim,true,0,464,3,0,2,88960,WMM2,223992,false,false,193,image-keyboard-response,1
true,2,2,1,0,false,q,false,false,0.0-2.0-0.3-0.35-3.35,0,1,0,68,false,stim,true,2,583,3,0,0,88960,WMM2,226101,false,false,196,image-keyboard-response,2
true,2,0,1,0,true,q,false,true,0.0-2.0-0.4-0.36-3.36,0,1,0,81,false,stim,false,0,643,3,1,1,88960,WMM2,228281,false,false,199,image-keyboard-response,3
true,2,2,1,0,false,q,false,true,0.0-2.0-0.4-0.37-3.37,0,1,0,68,false,stim,true,2,1293,3,0,0,88960,WMM2,231100,false,true,202,image-keyboard-response,4
true,2,0,1,0,true,q,false,true,0.0-2.0-0.4-0.38-3.38,0,1,0,81,false,stim,false,0,891,3,1,1,88960,WMM2,233529,false,false,205,image-keyboard-response,5
true,2,0,1,0,true,q,false,true,0.0-2.0-0.4-0.39-3.39,0,1,0,81,false,stim,false,0,458,3,1,1,88960,WMM2,235505,false,false,208,image-keyboard-response,6
true,2,0,1,1,false,z,false,false,0.0-2.0-0.4-0.40-3.40,0,1,0,81,false,stim,true,0,752,3,0,2,88960,WMM2,237789,false,false,211,image-keyboard-response,7
true,2,2,1,0,false,q,false,true,0.0-2.0-0.4-0.41-3.41,0,1,0,68,false,stim,true,2,439,3,0,0,88960,WMM2,239745,false,true,214,image-keyboard-response,8
true,2,0,1,1,false,z,false,false,0.0-2.0-0.4-0.42-3.42,0,1,0,81,false,stim,true,0,390,3,0,2,88960,WMM2,241677,false,false,217,image-keyboard-response,9
true,2,1,1,1,true,z,false,true,0.0-2.0-0.4-0.43-3.43,0,1,0,90,false,stim,false,0,604,3,0,2,88960,WMM2,243800,false,false,220,image-keyboard-response,10
true,2,2,1,0,false,q,false,false,0.0-2.0-0.4-0.44-3.44,0,1,0,68,false,stim,true,2,571,3,0,0,88960,WMM2,245899,false,false,223,image-keyboard-response,11
true,2,1,1,1,true,z,false,true,0.0-2.0-0.5-0.45-3.45,0,1,0,90,false,stim,false,0,562,3,0,2,88960,WMM2,247990,false,false,226,image-keyboard-response,12
true,2,2,1,0,false,q,false,false,0.0-2.0-0.5-0.46-3.46,0,1,0,68,false,stim,true,2,639,3,0,0,88960,WMM2,250157,false,false,229,image-keyboard-response,13
true,2,1,1,0,false,q,true,false,0.0-2.0-0.5-0.47-3.47,0,1,0,90,false,stim,false,2,1182,3,0,0,88960,WMM2,252870,false,false,232,image-keyboard-response,14
true,2,0,1,0,true,q,false,true,0.0-2.0-0.5-0.48-3.48,0,1,0,81,false,stim,false,0,1159,3,1,1,88960,WMM2,255556,false,false,235,image-keyboard-response,15
true,2,1,1,1,true,z,false,true,0.0-2.0-0.5-0.49-3.49,0,1,0,90,false,stim,false,0,1678,3,0,2,88960,WMM2,258765,false,false,238,image-keyboard-response,16
true,2,0,1,0,true,q,false,true,0.0-2.0-0.5-0.50-3.50,0,1,0,81,false,stim,false,0,914,3,1,1,88960,WMM2,261212,false,false,241,image-keyboard-response,17
true,2,0,1,0,true,q,false,true,0.0-2.0-0.5-0.51-3.51,0,1,0,81,false,stim,false,0,1017,3,1,1,88960,WMM2,263766,false,false,244,image-keyboard-response,18
true,2,0,1,0,true,q,false,true,0.0-2.0-0.5-0.52-3.52,0,1,0,81,false,stim,false,2,1808,3,0,0,88960,WMM2,267104,false,false,247,image-keyboard-response,19
true,2,1,1,1,true,z,false,true,0.0-2.0-0.5-0.53-3.53,0,1,0,90,false,stim,false,0,1538,3,0,2,88960,WMM2,270165,false,false,250,image-keyboard-response,20
true,2,0,1,0,true,q,false,true,0.0-2.0-0.6-0.54-3.54,0,1,0,81,false,stim,false,0,491,3,1,1,88960,WMM2,272189,false,false,253,image-keyboard-response,21
true,2,0,1,1,false,z,false,false,0.0-2.0-0.6-0.55-3.55,0,1,0,81,false,stim,true,0,533,3,0,2,88960,WMM2,274241,false,false,256,image-keyboard-response,22
true,2,0,1,0,true,q,false,true,0.0-2.0-0.6-0.56-3.56,0,1,0,81,false,stim,false,2,1177,3,0,0,88960,WMM2,276932,false,false,259,image-keyboard-response,23
true,2,1,1,1,true,z,false,true,0.0-2.0-0.6-0.57-3.57,0,1,0,90,false,stim,false,0,502,3,0,2,88960,WMM2,278958,false,false,262,image-keyboard-response,24
true,2,0,1,0,true,q,false,true,0.0-2.0-0.6-0.58-3.58,0,1,0,81,false,stim,false,0,838,3,1,1,88960,WMM2,281325,false,false,265,image-keyboard-response,25
true,2,0,1,0,true,q,false,true,0.0-2.0-0.6-0.59-3.59,0,1,0,81,false,stim,false,0,659,3,1,1,88960,WMM2,283517,false,false,268,image-keyboard-response,26
true,2,0,1,0,true,q,false,true,0.0-2.0-0.6-0.60-3.60,0,1,0,81,false,stim,false,2,2134,3,0,0,88960,WMM2,287192,false,false,271,image-keyboard-response,27
true,2,0,1,0,true,q,false,true,0.0-2.0-0.6-0.61-3.61,0,1,0,81,false,stim,false,2,1013,3,0,0,88960,WMM2,289740,false,false,274,image-keyboard-response,28
true,2,1,1,1,true,z,false,true,0.0-2.0-0.6-0.62-3.62,0,1,0,90,false,stim,false,0,901,3,0,2,88960,WMM2,292169,false,false,277,image-keyboard-response,29
true,2,1,1,1,true,z,false,true,0.0-2.0-0.7-0.63-3.63,0,1,0,90,false,stim,false,0,673,3,0,2,88960,WMM2,294380,false,false,280,image-keyboard-response,30
true,2,0,1,0,true,q,false,true,0.0-2.0-0.7-0.64-3.64,0,1,0,81,false,stim,false,2,1351,3,1,0,88960,WMM2,297269,false,false,283,image-keyboard-response,31
true,2,0,1,0,true,q,false,false,0.0-2.0-0.7-0.65-3.65,0,1,0,81,false,stim,false,0,2097,3,1,1,88960,WMM2,300905,false,true,286,image-keyboard-response,32
true,2,0,1,0,true,q,false,false,0.0-2.0-0.7-0.66-3.66,0,1,0,81,false,stim,false,2,1462,3,1,0,88960,WMM2,303900,false,true,289,image-keyboard-response,33
true,2,1,1,0,false,q,true,false,0.0-2.0-0.7-0.67-3.67,0,1,0,90,false,stim,false,0,972,3,1,1,88960,WMM2,306399,false,false,292,image-keyboard-response,34
true,2,1,1,1,true,z,false,true,0.0-2.0-0.7-0.68-3.68,0,1,0,90,false,stim,false,0,649,3,0,2,88960,WMM2,308585,false,false,295,image-keyboard-response,35
true,2,1,1,1,true,z,false,false,0.0-2.0-0.7-0.69-3.69,0,1,0,90,false,stim,false,0,534,3,0,2,88960,WMM2,310641,false,true,298,image-keyboard-response,36
true,2,2,1,0,false,q,true,true,0.0-2.0-0.7-0.70-3.70,0,1,0,68,false,stim,false,0,697,3,1,1,88960,WMM2,312861,false,true,301,image-keyboard-response,37
true,2,0,1,0,true,q,false,true,0.0-2.0-0.7-0.71-3.71,0,1,0,81,false,stim,false,2,1079,3,1,0,88960,WMM2,315477,false,false,304,image-keyboard-response,38
true,2,1,1,1,true,z,false,true,0.0-2.0-0.8-0.72-3.72,0,1,0,90,false,stim,false,0,1233,3,0,2,88960,WMM2,318240,false,false,307,image-keyboard-response,39
true,3,2,4,0,false,q,true,false,0.0-2.0-0.8-0.73-3.73,1,1,0,68,true,stim,false,0,1905,3,1,0,88960,WMM2,321682,false,false,310,image-keyboard-response,1
true,3,1,4,1,true,z,false,true,0.0-2.0-0.8-0.74-3.74,1,1,0,90,false,stim,false,1,1029,3,0,2,88960,WMM2,324237,false,false,313,image-keyboard-response,2
true,3,0,4,0,true,q,false,false,0.0-2.0-0.8-0.75-3.75,1,1,0,81,false,stim,false,0,511,3,1,0,88960,WMM2,326288,false,true,316,image-keyboard-response,3
true,3,2,4,0,false,q,true,true,0.0-2.0-0.8-0.76-3.76,1,1,0,68,false,stim,false,0,877,3,1,1,88960,WMM2,328705,false,true,319,image-keyboard-response,4
true,3,2,4,0,false,q,true,false,0.0-2.0-0.8-0.77-3.77,1,1,0,68,false,stim,false,0,503,3,1,1,88960,WMM2,330740,false,false,322,image-keyboard-response,5
true,3,1,4,1,true,z,false,true,0.0-2.0-0.8-0.78-3.78,1,1,0,90,false,stim,false,1,893,3,0,2,88960,WMM2,333161,false,false,325,image-keyboard-response,6
true,3,0,4,0,true,q,false,true,0.0-2.0-0.8-0.79-3.79,1,1,0,81,false,stim,false,0,937,3,1,0,88960,WMM2,335644,false,false,328,image-keyboard-response,7
true,3,2,4,0,false,q,true,false,0.0-2.0-0.8-0.80-3.80,1,1,0,68,false,stim,false,0,1981,3,1,1,88960,WMM2,339169,false,false,331,image-keyboard-response,8
true,3,2,4,0,false,q,true,false,0.0-2.0-0.9-0.81-3.81,1,1,0,68,false,stim,false,0,784,3,1,1,88960,WMM2,341481,false,false,334,image-keyboard-response,9
true,3,0,4,0,true,q,false,true,0.0-2.0-0.9-0.82-3.82,1,1,0,81,false,stim,false,0,1303,3,1,0,88960,WMM2,344320,false,false,337,image-keyboard-response,10
true,3,1,4,1,true,z,false,true,0.0-2.0-0.9-0.83-3.83,1,1,0,90,false,stim,false,1,821,3,0,2,88960,WMM2,346668,false,false,340,image-keyboard-response,11
true,3,1,4,1,true,z,false,true,0.0-2.0-0.9-0.84-3.84,1,1,0,90,false,stim,false,1,512,3,0,2,88960,WMM2,348720,false,false,343,image-keyboard-response,12
true,3,2,4,0,false,q,true,false,0.0-2.0-0.9-0.85-3.85,1,1,0,68,false,stim,false,0,901,3,1,1,88960,WMM2,351150,false,false,346,image-keyboard-response,13
true,3,0,4,0,true,q,false,true,0.0-2.0-0.9-0.86-3.86,1,1,0,81,false,stim,false,0,719,3,1,0,88960,WMM2,353397,false,false,349,image-keyboard-response,14
true,3,1,4,1,true,z,false,true,0.0-2.0-0.9-0.87-3.87,1,1,0,90,false,stim,false,1,631,3,0,2,88960,WMM2,355557,false,false,352,image-keyboard-response,15
true,3,0,4,0,true,q,false,true,0.0-2.0-0.9-0.88-3.88,1,1,0,81,false,stim,false,0,868,3,1,0,88960,WMM2,357957,false,false,355,image-keyboard-response,16
true,3,1,4,0,false,q,true,false,0.0-2.0-0.9-0.89-3.89,1,1,0,90,false,stim,false,0,1360,3,1,1,88960,WMM2,360848,false,false,358,image-keyboard-response,17
true,3,0,4,0,true,q,false,true,0.0-2.0-0.10-0.90-3.90,1,1,0,81,false,stim,false,0,837,3,1,1,88960,WMM2,363225,false,false,361,image-keyboard-response,18
true,3,0,4,0,true,q,false,true,0.0-2.0-0.10-0.91-3.91,1,1,0,81,false,stim,false,0,970,3,1,0,88960,WMM2,365728,false,false,364,image-keyboard-response,19
true,3,0,4,0,true,q,false,true,0.0-2.0-0.10-0.92-3.92,1,1,0,81,false,stim,false,0,738,3,1,1,88960,WMM2,368005,false,false,367,image-keyboard-response,20
true,3,1,4,1,true,z,false,false,0.0-2.0-0.10-0.93-3.93,1,1,0,90,false,stim,false,1,1021,3,1,2,88960,WMM2,370568,false,true,370,image-keyboard-response,21
true,3,0,4,0,true,q,false,true,0.0-2.0-0.10-0.94-3.94,1,1,0,81,false,stim,false,0,552,3,0,1,88960,WMM2,372648,false,false,373,image-keyboard-response,22
true,3,1,4,1,true,z,false,false,0.0-2.0-0.10-0.95-3.95,1,1,0,90,false,stim,false,1,1721,3,1,2,88960,WMM2,375907,false,true,376,image-keyboard-response,23
true,3,2,4,1,false,z,true,false,0.0-2.0-0.10-0.96-3.96,1,1,0,68,false,stim,false,1,1173,3,1,2,88960,WMM2,378628,false,false,379,image-keyboard-response,24
true,3,0,4,0,true,q,false,true,0.0-2.0-0.10-0.97-3.97,1,1,0,81,false,stim,false,0,630,3,1,0,88960,WMM2,380797,false,false,382,image-keyboard-response,25
true,3,0,4,0,true,q,false,true,0.0-2.0-0.10-0.98-3.98,1,1,0,81,false,stim,false,0,421,3,1,0,88960,WMM2,382749,false,false,385,image-keyboard-response,26
true,3,0,4,0,true,q,false,true,0.0-2.0-0.11-0.99-3.99,1,1,0,81,false,stim,false,0,727,3,1,0,88960,WMM2,385010,false,false,388,image-keyboard-response,27
true,3,1,4,1,true,z,false,true,0.0-2.0-0.11-0.100-3.100,1,1,0,90,false,stim,false,1,880,3,1,2,88960,WMM2,387426,false,false,391,image-keyboard-response,28
true,3,1,4,1,true,z,false,true,0.0-2.0-0.11-0.101-3.101,1,1,0,90,false,stim,false,1,743,3,1,2,88960,WMM2,389709,false,false,394,image-keyboard-response,29
true,3,0,4,0,true,q,false,true,0.0-2.0-0.11-0.102-3.102,1,1,0,81,false,stim,false,0,605,3,0,1,88960,WMM2,391852,false,false,397,image-keyboard-response,30
true,4,0,3,0,true,q,false,true,0.0-2.0-0.11-0.103-3.103,1,0,1,81,true,stim,false,0,1355,3,1,0,88960,WMM2,394732,false,false,400,image-keyboard-response,1
true,4,0,3,1,false,z,false,true,0.0-2.0-0.11-0.104-3.104,1,0,1,81,false,stim,true,0,684,3,0,1,88960,WMM2,396951,false,true,403,image-keyboard-response,2
true,4,1,3,1,true,z,false,true,0.0-2.0-0.11-0.105-3.105,1,0,1,90,false,stim,false,1,759,3,1,2,88960,WMM2,399236,false,false,406,image-keyboard-response,3
true,4,0,3,0,true,q,false,true,0.0-2.0-0.11-0.106-3.106,1,0,1,81,false,stim,false,0,719,3,1,0,88960,WMM2,401497,false,false,409,image-keyboard-response,4
true,4,0,3,1,false,z,false,false,0.0-2.0-0.11-0.107-3.107,1,0,1,81,false,stim,true,0,717,3,0,1,88960,WMM2,403744,false,false,412,image-keyboard-response,5
true,4,0,3,1,false,z,false,false,0.0-2.0-0.12-0.108-3.108,1,0,1,81,false,stim,true,0,1411,3,0,1,88960,WMM2,406685,false,false,415,image-keyboard-response,6
true,4,1,3,1,true,z,false,true,0.0-2.0-0.12-0.109-3.109,1,0,1,90,false,stim,false,1,644,3,1,2,88960,WMM2,408870,false,false,418,image-keyboard-response,7
true,4,0,3,0,true,q,false,true,0.0-2.0-0.12-0.110-3.110,1,0,1,81,false,stim,false,0,620,3,1,0,88960,WMM2,411017,false,false,421,image-keyboard-response,8
true,4,0,3,0,true,q,false,true,0.0-2.0-0.12-0.111-3.111,1,0,1,81,false,stim,false,0,761,3,1,0,88960,WMM2,413309,false,false,424,image-keyboard-response,9
true,4,1,3,1,true,z,false,false,0.0-2.0-0.12-0.112-3.112,1,0,1,90,false,stim,false,1,1350,3,1,2,88960,WMM2,416197,false,true,427,image-keyboard-response,10
true,4,0,3,1,false,z,false,false,0.0-2.0-0.12-0.113-3.113,1,0,1,81,false,stim,true,0,566,3,0,1,88960,WMM2,418305,false,false,430,image-keyboard-response,11
true,4,1,3,1,true,z,false,true,0.0-2.0-0.12-0.114-3.114,1,0,1,90,false,stim,false,1,749,3,1,2,88960,WMM2,420597,false,false,433,image-keyboard-response,12
true,4,2,3,0,false,q,true,true,0.0-2.0-0.12-0.115-3.115,1,0,1,68,false,stim,false,0,2169,3,1,0,88960,WMM2,424305,false,true,436,image-keyboard-response,13
true,4,0,3,1,false,z,false,false,0.0-2.0-0.12-0.116-3.116,1,0,1,81,false,stim,true,0,1000,3,0,1,88960,WMM2,426847,false,false,439,image-keyboard-response,14
true,4,1,3,1,true,z,false,true,0.0-2.0-0.13-0.117-3.117,1,0,1,90,false,stim,false,1,829,3,1,2,88960,WMM2,429205,false,false,442,image-keyboard-response,15
true,4,2,3,1,false,z,true,false,0.0-2.0-0.13-0.118-3.118,1,0,1,68,false,stim,false,0,870,3,0,1,88960,WMM2,431618,false,false,445,image-keyboard-response,16
true,4,2,3,1,false,z,true,false,0.0-2.0-0.13-0.119-3.119,1,0,1,68,false,stim,false,0,421,3,0,1,88960,WMM2,433578,false,false,448,image-keyboard-response,17
true,4,1,3,1,true,z,false,true,0.0-2.0-0.13-0.120-3.120,1,0,1,90,false,stim,false,1,873,3,1,2,88960,WMM2,435980,false,false,451,image-keyboard-response,18
true,4,1,3,1,true,z,false,true,0.0-2.0-0.13-0.121-3.121,1,0,1,90,false,stim,false,1,917,3,1,2,88960,WMM2,438425,false,false,454,image-keyboard-response,19
true,4,2,3,0,false,q,true,false,0.0-2.0-0.13-0.122-3.122,1,0,1,68,false,stim,false,0,678,3,1,0,88960,WMM2,440625,false,false,457,image-keyboard-response,20
true,4,0,3,0,true,q,false,true,0.0-2.0-0.13-0.123-3.123,1,0,1,81,false,stim,false,0,950,3,1,0,88960,WMM2,443117,false,false,460,image-keyboard-response,21
true,4,0,3,0,true,q,false,true,0.0-2.0-0.13-0.124-3.124,1,0,1,81,false,stim,false,0,465,3,1,0,88960,WMM2,445122,false,false,463,image-keyboard-response,22
true,4,2,3,1,false,z,true,false,0.0-2.0-0.13-0.125-3.125,1,0,1,68,false,stim,false,0,488,3,0,1,88960,WMM2,447155,false,false,466,image-keyboard-response,23
true,4,1,3,1,true,z,false,false,0.0-2.0-0.14-0.126-3.126,1,0,1,90,false,stim,false,0,409,3,0,1,88960,WMM2,449097,false,true,469,image-keyboard-response,24
true,4,0,3,1,false,z,false,true,0.0-2.0-0.14-0.127-3.127,1,0,1,81,false,stim,true,0,432,3,0,1,88960,WMM2,451060,false,true,472,image-keyboard-response,25
true,4,0,3,1,false,z,false,false,0.0-2.0-0.14-0.128-3.128,1,0,1,81,false,stim,true,0,830,3,0,1,88960,WMM2,453417,false,false,475,image-keyboard-response,26
true,4,1,3,1,true,z,false,true,0.0-2.0-0.14-0.129-3.129,1,0,1,90,false,stim,false,1,735,3,1,2,88960,WMM2,455692,false,false,478,image-keyboard-response,27
true,4,0,3,0,true,q,false,false,0.0-2.0-0.14-0.130-3.130,1,0,1,81,false,stim,false,0,857,3,1,0,88960,WMM2,458085,false,true,481,image-keyboard-response,28
true,4,0,3,0,true,q,false,true,0.0-2.0-0.14-0.131-3.131,1,0,1,81,false,stim,false,0,574,3,1,0,88960,WMM2,460192,false,false,484,image-keyboard-response,29
true,4,0,3,0,true,q,false,true,0.0-2.0-0.14-0.132-3.132,1,0,1,81,false,stim,false,0,527,3,1,0,88960,WMM2,462265,false,false,487,image-keyboard-response,30
true,4,1,3,1,true,z,false,true,0.0-2.0-0.14-0.133-3.133,1,0,1,90,false,stim,false,1,660,3,1,2,88960,WMM2,464469,false,false,490,image-keyboard-response,31
true,4,1,3,1,true,z,false,true,0.0-2.0-0.14-0.134-3.134,1,0,1,90,false,stim,false,1,500,3,1,2,88960,WMM2,466506,false,false,493,image-keyboard-response,32
true,4,1,3,1,true,z,false,true,0.0-2.0-0.15-0.135-3.135,1,0,1,90,false,stim,false,1,442,3,1,2,88960,WMM2,468478,false,false,496,image-keyboard-response,33
true,4,0,3,0,true,q,false,true,0.0-2.0-0.15-0.136-3.136,1,0,1,81,false,stim,false,0,796,3,1,0,88960,WMM2,470793,false,false,499,image-keyboard-response,34
true,4,0,3,1,false,z,false,false,0.0-2.0-0.15-0.137-3.137,1,0,1,81,false,stim,true,0,976,3,0,1,88960,WMM2,473313,false,false,502,image-keyboard-response,35
true,4,0,3,1,false,z,false,false,0.0-2.0-0.15-0.138-3.138,1,0,1,81,false,stim,true,0,420,3,0,1,88960,WMM2,475280,false,false,505,image-keyboard-response,36
true,4,1,3,1,true,z,false,true,0.0-2.0-0.15-0.139-3.139,1,0,1,90,false,stim,false,1,905,3,1,2,88960,WMM2,477713,false,false,508,image-keyboard-response,37
true,4,1,3,1,true,z,false,true,0.0-2.0-0.15-0.140-3.140,1,0,1,90,false,stim,false,1,683,3,1,2,88960,WMM2,479940,false,false,511,image-keyboard-response,38
true,4,0,3,0,true,q,false,true,0.0-2.0-0.15-0.141-3.141,1,0,1,81,false,stim,false,0,1262,3,1,0,88960,WMM2,482728,false,false,514,image-keyboard-response,39
true,4,0,3,0,true,q,false,true,0.0-2.0-0.15-0.142-3.142,1,0,1,81,false,stim,false,0,435,3,1,0,88960,WMM2,484692,false,false,517,image-keyboard-response,40
true,4,1,3,1,true,z,false,true,0.0-2.0-0.15-0.143-3.143,1,0,1,90,false,stim,false,0,1050,3,0,1,88960,WMM2,487289,false,false,520,image-keyboard-response,41
true,4,1,3,1,true,z,false,true,0.0-2.0-0.16-0.144-3.144,1,0,1,90,false,stim,false,0,719,3,0,1,88960,WMM2,489544,false,false,523,image-keyboard-response,42
true,4,0,3,0,true,q,false,true,0.0-2.0-0.16-0.145-3.145,1,0,1,81,false,stim,false,0,729,3,1,0,88960,WMM2,491807,false,false,526,image-keyboard-response,43
true,4,1,3,1,true,z,false,false,0.0-2.0-0.16-0.146-3.146,1,0,1,90,false,stim,false,0,638,3,1,1,88960,WMM2,493986,false,true,529,image-keyboard-response,44
true,4,0,3,0,true,q,false,true,0.0-2.0-0.16-0.147-3.147,1,0,1,81,false,stim,false,0,755,3,1,0,88960,WMM2,496272,false,false,532,image-keyboard-response,45
true,4,1,3,1,true,z,false,true,0.0-2.0-0.16-0.148-3.148,1,0,1,90,false,stim,false,0,685,3,1,1,88960,WMM2,498472,false,false,535,image-keyboard-response,46
true,4,0,3,0,true,q,false,true,0.0-2.0-0.16-0.149-3.149,1,0,1,81,false,stim,false,0,1329,3,1,0,88960,WMM2,501328,false,false,538,image-keyboard-response,47
true,4,1,3,1,true,z,false,true,0.0-2.0-0.16-0.150-3.150,1,0,1,90,false,stim,false,1,754,3,0,2,88960,WMM2,503600,false,false,541,image-keyboard-response,48
true,4,1,3,1,true,z,false,true,0.0-2.0-0.16-0.151-3.151,1,0,1,90,false,stim,false,1,601,3,0,2,88960,WMM2,505729,false,false,544,image-keyboard-response,49
true,4,1,3,1,true,z,false,true,0.0-2.0-0.16-0.152-3.152,1,0,1,90,false,stim,false,1,473,3,0,2,88960,WMM2,507718,false,false,547,image-keyboard-response,50
true,4,1,3,1,true,z,false,true,0.0-2.0-0.17-0.153-3.153,1,0,1,90,false,stim,false,0,1289,3,1,1,88960,WMM2,510537,false,false,550,image-keyboard-response,51
true,4,1,3,1,true,z,false,true,0.0-2.0-0.17-0.154-3.154,1,0,1,90,false,stim,false,1,685,3,0,2,88960,WMM2,512765,false,false,553,image-keyboard-response,52
true,5,0,4,0,true,q,false,true,0.0-2.0-0.17-0.155-3.155,1,1,0,81,true,stim,false,0,868,3,1,0,88960,WMM2,515156,false,false,556,image-keyboard-response,1
true,5,0,4,0,true,q,false,false,0.0-2.0-0.17-0.156-3.156,1,1,0,81,false,stim,false,0,872,3,1,0,88960,WMM2,517548,false,true,559,image-keyboard-response,2
true,5,1,4,1,true,z,false,false,0.0-2.0-0.17-0.157-3.157,1,1,0,90,false,stim,false,1,520,3,0,2,88960,WMM2,519588,false,true,562,image-keyboard-response,3
true,5,1,4,1,true,z,false,true,0.0-2.0-0.17-0.158-3.158,1,1,0,90,false,stim,false,1,614,3,1,1,88960,WMM2,521740,false,false,565,image-keyboard-response,4
true,5,2,4,0,false,q,true,false,0.0-2.0-0.17-0.159-3.159,1,1,0,68,false,stim,false,0,847,3,1,0,88960,WMM2,524104,false,false,568,image-keyboard-response,5
true,5,1,4,1,true,z,false,true,0.0-2.0-0.17-0.160-3.160,1,1,0,90,false,stim,false,1,549,3,0,2,88960,WMM2,526176,false,false,571,image-keyboard-response,6
true,5,2,4,1,false,z,true,false,0.0-2.0-0.17-0.161-3.161,1,1,0,68,false,stim,false,1,881,3,1,1,88960,WMM2,528585,false,false,574,image-keyboard-response,7
true,5,1,4,1,true,z,false,true,0.0-2.0-0.18-0.162-3.162,1,1,0,90,false,stim,false,1,699,3,0,2,88960,WMM2,530817,false,false,577,image-keyboard-response,8
true,5,0,4,1,false,z,true,true,0.0-2.0-0.18-0.163-3.163,1,1,0,81,false,stim,false,1,1449,3,1,1,88960,WMM2,533796,false,true,580,image-keyboard-response,9
true,5,0,4,0,true,q,false,true,0.0-2.0-0.18-0.164-3.164,1,1,0,81,false,stim,false,0,1163,3,1,0,88960,WMM2,536501,false,false,583,image-keyboard-response,10
true,5,0,4,0,true,q,false,true,0.0-2.0-0.18-0.165-3.165,1,1,0,81,false,stim,false,0,662,3,1,0,88960,WMM2,538699,false,false,586,image-keyboard-response,11
true,5,1,4,1,true,z,false,true,0.0-2.0-0.18-0.166-3.166,1,1,0,90,false,stim,false,1,969,3,0,2,88960,WMM2,541192,false,false,589,image-keyboard-response,12
true,5,0,4,1,false,z,true,true,0.0-2.0-0.18-0.167-3.167,1,1,0,81,false,stim,false,1,851,3,1,1,88960,WMM2,543568,false,true,592,image-keyboard-response,13
true,5,0,4,1,false,z,true,false,0.0-2.0-0.18-0.168-3.168,1,1,0,81,false,stim,false,1,394,3,1,1,88960,WMM2,545500,false,false,595,image-keyboard-response,14
true,5,0,4,1,false,z,true,false,0.0-2.0-0.18-0.169-3.169,1,1,0,81,false,stim,false,1,777,3,0,2,88960,WMM2,547803,false,false,598,image-keyboard-response,15
true,5,0,4,0,true,q,false,true,0.0-2.0-0.18-0.170-3.170,1,1,0,81,false,stim,false,0,731,3,1,0,88960,WMM2,550080,false,false,601,image-keyboard-response,16
true,5,0,4,0,true,q,false,true,0.0-2.0-0.19-0.171-3.171,1,1,0,81,false,stim,false,0,616,3,1,0,88960,WMM2,552225,false,false,604,image-keyboard-response,17
true,5,0,4,1,false,z,true,false,0.0-2.0-0.19-0.172-3.172,1,1,0,81,false,stim,false,1,1139,3,1,1,88960,WMM2,554897,false,false,607,image-keyboard-response,18
true,5,0,4,1,false,z,true,false,0.0-2.0-0.19-0.173-3.173,1,1,0,81,false,stim,false,1,511,3,1,1,88960,WMM2,556949,false,false,610,image-keyboard-response,19
true,5,2,4,1,false,z,true,false,0.0-2.0-0.19-0.174-3.174,1,1,0,68,false,stim,false,1,1169,3,1,1,88960,WMM2,559656,false,false,613,image-keyboard-response,20
true,5,0,4,0,true,q,false,true,0.0-2.0-0.19-0.175-3.175,1,1,0,81,false,stim,false,0,1435,3,1,0,88960,WMM2,562633,false,false,616,image-keyboard-response,21
true,5,0,4,0,true,q,false,false,0.0-2.0-0.19-0.176-3.176,1,1,0,81,false,stim,false,0,655,3,1,0,88960,WMM2,564817,false,true,619,image-keyboard-response,22
true,5,1,4,1,true,z,false,true,0.0-2.0-0.19-0.177-3.177,1,1,0,90,false,stim,false,1,961,3,0,2,88960,WMM2,567318,false,false,622,image-keyboard-response,23
true,5,1,4,1,true,z,false,true,0.0-2.0-0.19-0.178-3.178,1,1,0,90,false,stim,false,1,486,3,0,2,88960,WMM2,569332,false,false,625,image-keyboard-response,24
true,5,1,4,1,true,z,false,true,0.0-2.0-0.19-0.179-3.179,1,1,0,90,false,stim,false,1,431,3,0,2,88960,WMM2,571288,false,false,628,image-keyboard-response,25
true,5,0,4,0,true,q,false,true,0.0-2.0-0.20-0.180-3.180,1,1,0,81,false,stim,false,0,1370,3,1,0,88960,WMM2,574188,false,false,631,image-keyboard-response,26
true,5,1,4,1,true,z,false,true,0.0-2.0-0.20-0.181-3.181,1,1,0,90,false,stim,false,1,717,3,1,1,88960,WMM2,576444,false,false,634,image-keyboard-response,27
true,5,1,4,1,true,z,false,true,0.0-2.0-0.20-0.182-3.182,1,1,0,90,false,stim,false,1,930,3,0,2,88960,WMM2,578909,false,false,637,image-keyboard-response,28
true,5,1,4,1,true,z,false,true,0.0-2.0-0.20-0.183-3.183,1,1,0,90,false,stim,false,1,480,3,1,1,88960,WMM2,580909,false,false,640,image-keyboard-response,29
true,5,1,4,1,true,z,false,true,0.0-2.0-0.20-0.184-3.184,1,1,0,90,false,stim,false,1,569,3,0,2,88960,WMM2,582997,false,false,643,image-keyboard-response,30
true,5,1,4,1,true,z,false,true,0.0-2.0-0.20-0.185-3.185,1,1,0,90,false,stim,false,1,445,3,0,2,88960,WMM2,584973,false,false,646,image-keyboard-response,31
true,5,0,4,0,true,q,false,true,0.0-2.0-0.20-0.186-3.186,1,1,0,81,false,stim,false,0,1395,3,1,0,88960,WMM2,587883,false,false,649,image-keyboard-response,32
true,5,1,4,1,true,z,false,true,0.0-2.0-0.20-0.187-3.187,1,1,0,90,false,stim,false,1,830,3,0,1,88960,WMM2,590248,false,false,652,image-keyboard-response,33
true,5,0,4,0,true,q,false,true,0.0-2.0-0.20-0.188-3.188,1,1,0,81,false,stim,false,0,1264,3,1,0,88960,WMM2,593052,false,false,655,image-keyboard-response,34
true,5,1,4,1,true,z,false,true,0.0-2.0-0.21-0.189-3.189,1,1,0,90,false,stim,false,1,955,3,0,2,88960,WMM2,595532,false,false,658,image-keyboard-response,35
true,5,1,4,1,true,z,false,true,0.0-2.0-0.21-0.190-3.190,1,1,0,90,false,stim,false,1,455,3,0,2,88960,WMM2,597512,false,false,661,image-keyboard-response,36
true,5,1,4,1,true,z,false,true,0.0-2.0-0.21-0.191-3.191,1,1,0,90,false,stim,false,1,1525,3,0,1,88960,WMM2,600572,false,false,664,image-keyboard-response,37
true,5,1,4,1,true,z,false,true,0.0-2.0-0.21-0.192-3.192,1,1,0,90,false,stim,false,1,1572,3,0,2,88960,WMM2,603680,false,false,667,image-keyboard-response,38
true,5,0,4,0,true,q,false,true,0.0-2.0-0.21-0.193-3.193,1,1,0,81,false,stim,false,0,1499,3,1,0,88960,WMM2,606717,false,false,670,image-keyboard-response,39
true,6,1,1,2,false,d,false,false,0.0-2.0-0.21-0.194-3.194,1,0,0,90,true,stim,true,1,891,3,0,1,88960,WMM2,609149,false,false,673,image-keyboard-response,1
true,6,0,1,0,true,q,false,false,0.0-2.0-0.21-0.195-3.195,1,0,0,81,false,stim,false,0,1005,3,1,0,88960,WMM2,611684,false,true,676,image-keyboard-response,2
true,6,0,1,0,true,q,false,true,0.0-2.0-0.21-0.196-3.196,1,0,0,81,false,stim,false,0,701,3,1,0,88960,WMM2,613928,false,false,679,image-keyboard-response,3
true,6,1,1,2,false,d,false,false,0.0-2.0-0.21-0.197-3.197,1,0,0,90,false,stim,true,1,753,3,0,1,88960,WMM2,616220,false,false,682,image-keyboard-response,4
true,6,1,1,2,false,d,false,false,0.0-2.0-0.22-0.198-3.198,1,0,0,90,false,stim,true,1,590,3,0,1,88960,WMM2,618349,false,false,685,image-keyboard-response,5
true,6,1,1,2,false,d,false,false,0.0-2.0-0.22-0.199-3.199,1,0,0,90,false,stim,true,1,455,3,0,1,88960,WMM2,620333,false,false,688,image-keyboard-response,6
true,6,2,1,2,true,d,false,true,0.0-2.0-0.22-0.200-3.200,1,0,0,68,false,stim,false,1,473,3,0,1,88960,WMM2,622339,false,false,691,image-keyboard-response,7
true,6,1,1,0,false,q,false,false,0.0-2.0-0.22-0.201-3.201,1,0,0,90,false,stim,true,1,924,3,0,2,88960,WMM2,624804,false,false,694,image-keyboard-response,8
true,6,2,1,0,false,q,true,false,0.0-2.0-0.22-0.202-3.202,1,0,0,68,false,stim,false,1,414,3,0,2,88960,WMM2,626761,false,false,697,image-keyboard-response,9
true,6,1,1,0,false,q,false,false,0.0-2.0-0.22-0.203-3.203,1,0,0,90,false,stim,true,1,496,3,0,2,88960,WMM2,628792,false,false,700,image-keyboard-response,10
true,6,0,1,0,true,q,false,true,0.0-2.0-0.22-0.204-3.204,1,0,0,81,false,stim,false,0,712,3,1,0,88960,WMM2,631049,false,false,703,image-keyboard-response,11
true,6,0,1,0,true,q,false,true,0.0-2.0-0.22-0.205-3.205,1,0,0,81,false,stim,false,0,460,3,1,0,88960,WMM2,633045,false,false,706,image-keyboard-response,12
true,6,0,1,0,true,q,false,true,0.0-2.0-0.22-0.206-3.206,1,0,0,81,false,stim,false,0,839,3,1,0,88960,WMM2,635416,false,false,709,image-keyboard-response,13
true,6,2,1,2,true,d,false,true,0.0-2.0-0.23-0.207-3.207,1,0,0,68,false,stim,false,1,1022,3,0,1,88960,WMM2,637971,false,false,712,image-keyboard-response,14
true,6,0,1,0,true,q,false,true,0.0-2.0-0.23-0.208-3.208,1,0,0,81,false,stim,false,1,835,3,0,2,88960,WMM2,640352,false,false,715,image-keyboard-response,15
true,6,0,1,0,true,q,false,true,0.0-2.0-0.23-0.209-3.209,1,0,0,81,false,stim,false,0,1142,3,1,0,88960,WMM2,643020,false,false,718,image-keyboard-response,16
true,6,0,1,0,true,q,false,true,0.0-2.0-0.23-0.210-3.210,1,0,0,81,false,stim,false,1,1241,3,0,2,88960,WMM2,645789,false,false,721,image-keyboard-response,17
true,6,2,1,2,true,d,false,true,0.0-2.0-0.23-0.211-3.211,1,0,0,68,false,stim,false,1,825,3,0,1,88960,WMM2,648140,false,false,724,image-keyboard-response,18
true,6,2,1,2,true,d,false,false,0.0-2.0-0.23-0.212-3.212,1,0,0,68,false,stim,false,1,626,3,0,1,88960,WMM2,650292,false,true,727,image-keyboard-response,19
true,6,0,1,0,true,q,false,true,0.0-2.0-0.23-0.213-3.213,1,0,0,81,false,stim,false,0,617,3,1,0,88960,WMM2,652424,false,false,730,image-keyboard-response,20
true,6,0,1,0,true,q,false,true,0.0-2.0-0.23-0.214-3.214,1,0,0,81,false,stim,false,1,1153,3,1,2,88960,WMM2,655100,false,false,733,image-keyboard-response,21
true,6,0,1,0,true,q,false,true,0.0-2.0-0.23-0.215-3.215,1,0,0,81,false,stim,false,0,702,3,0,0,88960,WMM2,657350,false,false,736,image-keyboard-response,22
true,6,2,1,2,true,d,false,true,0.0-2.0-0.24-0.216-3.216,1,0,0,68,false,stim,false,1,616,3,1,1,88960,WMM2,659492,false,false,739,image-keyboard-response,23
true,6,0,1,0,true,q,false,true,0.0-2.0-0.24-0.217-3.217,1,0,0,81,false,stim,false,1,515,3,1,2,88960,WMM2,661540,false,false,742,image-keyboard-response,24
true,6,0,1,0,true,q,false,true,0.0-2.0-0.24-0.218-3.218,1,0,0,81,false,stim,false,1,461,3,1,2,88960,WMM2,663528,false,false,745,image-keyboard-response,25
true,6,2,1,2,true,d,false,true,0.0-2.0-0.24-0.219-3.219,1,0,0,68,false,stim,false,1,1676,3,1,1,88960,WMM2,666732,false,false,748,image-keyboard-response,26
true,6,2,1,2,true,d,false,true,0.0-2.0-0.24-0.220-3.220,1,0,0,68,false,stim,false,1,463,3,1,1,88960,WMM2,668733,false,false,751,image-keyboard-response,27
true,6,0,1,0,true,q,false,true,0.0-2.0-0.24-0.221-3.221,1,0,0,81,false,stim,false,1,570,3,1,2,88960,WMM2,670817,false,false,754,image-keyboard-response,28
true,6,0,1,0,true,q,false,true,0.0-2.0-0.24-0.222-3.222,1,0,0,81,false,stim,false,0,888,3,0,0,88960,WMM2,673236,false,false,757,image-keyboard-response,29
true,6,0,1,0,true,q,false,true,0.0-2.0-0.24-0.223-3.223,1,0,0,81,false,stim,false,0,734,3,0,0,88960,WMM2,675493,false,false,760,image-keyboard-response,30
true,7,0,3,1,false,z,false,true,0.0-2.0-0.24-0.224-3.224,0,1,1,81,true,stim,true,0,449,3,0,0,88960,WMM2,677477,false,true,763,image-keyboard-response,1
true,7,0,3,1,false,z,false,false,0.0-2.0-0.25-0.225-3.225,0,1,1,81,false,stim,true,0,569,3,0,0,88960,WMM2,679577,false,false,766,image-keyboard-response,2
true,7,2,3,2,true,d,false,false,0.0-2.0-0.25-0.226-3.226,0,1,1,68,false,stim,false,2,832,3,1,1,88960,WMM2,681948,false,true,769,image-keyboard-response,3
true,7,0,3,0,true,q,false,true,0.0-2.0-0.25-0.227-3.227,0,1,1,81,false,stim,false,0,1301,3,1,2,88960,WMM2,684789,false,false,772,image-keyboard-response,4
true,7,0,3,1,false,z,false,false,0.0-2.0-0.25-0.228-3.228,0,1,1,81,false,stim,true,0,695,3,0,0,88960,WMM2,687012,false,false,775,image-keyboard-response,5
true,7,2,3,2,true,d,false,true,0.0-2.0-0.25-0.229-3.229,0,1,1,68,false,stim,false,2,1033,3,1,1,88960,WMM2,689580,false,false,778,image-keyboard-response,6
true,7,2,3,2,true,d,false,true,0.0-2.0-0.25-0.230-3.230,0,1,1,68,false,stim,false,2,469,3,1,1,88960,WMM2,691576,false,false,781,image-keyboard-response,7
true,7,0,3,1,false,z,false,false,0.0-2.0-0.25-0.231-3.231,0,1,1,81,false,stim,true,0,715,3,0,0,88960,WMM2,693832,false,false,784,image-keyboard-response,8
true,7,0,3,0,true,q,false,false,0.0-2.0-0.25-0.232-3.232,0,1,1,81,false,stim,false,0,1459,3,1,2,88960,WMM2,696817,false,true,787,image-keyboard-response,9
true,7,1,3,0,false,q,true,true,0.0-2.0-0.25-0.233-3.233,0,1,1,90,false,stim,false,0,383,3,1,2,88960,WMM2,698740,false,true,790,image-keyboard-response,10
true,7,1,3,1,true,z,false,true,0.0-2.0-0.26-0.234-3.234,0,1,1,90,false,stim,false,0,367,3,0,0,88960,WMM2,700644,false,false,793,image-keyboard-response,11
true,7,1,3,0,false,q,true,false,0.0-2.0-0.26-0.235-3.235,0,1,1,90,false,stim,false,0,533,3,1,2,88960,WMM2,702720,false,false,796,image-keyboard-response,12
true,7,1,3,1,true,z,false,true,0.0-2.0-0.26-0.236-3.236,0,1,1,90,false,stim,false,0,454,3,0,0,88960,WMM2,704692,false,false,799,image-keyboard-response,13
true,7,2,3,2,true,d,false,false,0.0-2.0-0.26-0.237-3.237,0,1,1,68,false,stim,false,2,587,3,1,1,88960,WMM2,706824,false,true,802,image-keyboard-response,14
true,7,2,3,2,true,d,false,true,0.0-2.0-0.26-0.238-3.238,0,1,1,68,false,stim,false,2,565,3,1,1,88960,WMM2,708912,false,false,805,image-keyboard-response,15
true,7,1,3,0,false,q,true,false,0.0-2.0-0.26-0.239-3.239,0,1,1,90,false,stim,false,0,1410,3,1,2,88960,WMM2,711848,false,false,808,image-keyboard-response,16
true,7,0,3,0,true,q,false,true,0.0-2.0-0.26-0.240-3.240,0,1,1,81,false,stim,false,0,437,3,1,2,88960,WMM2,713823,false,false,811,image-keyboard-response,17
true,7,1,3,1,true,z,false,true,0.0-2.0-0.26-0.241-3.241,0,1,1,90,false,stim,false,0,479,3,0,0,88960,WMM2,715838,false,false,814,image-keyboard-response,18
true,7,2,3,2,true,d,false,true,0.0-2.0-0.26-0.242-3.242,0,1,1,68,false,stim,false,2,434,3,1,1,88960,WMM2,717800,false,false,817,image-keyboard-response,19
true,7,0,3,0,true,q,false,false,0.0-2.0-0.27-0.243-3.243,0,1,1,81,false,stim,false,0,1647,3,1,2,88960,WMM2,720973,false,true,820,image-keyboard-response,20
true,7,0,3,1,false,z,false,false,0.0-2.0-0.27-0.244-3.244,0,1,1,81,false,stim,true,0,739,3,0,0,88960,WMM2,723257,false,false,823,image-keyboard-response,21
true,7,0,3,1,false,z,false,false,0.0-2.0-0.27-0.245-3.245,0,1,1,81,false,stim,true,0,491,3,0,0,88960,WMM2,725280,false,false,826,image-keyboard-response,22
true,7,1,3,0,false,q,true,false,0.0-2.0-0.27-0.246-3.246,0,1,1,90,false,stim,false,0,551,3,0,2,88960,WMM2,727368,false,false,829,image-keyboard-response,23
true,7,1,3,1,true,z,false,false,0.0-2.0-0.27-0.247-3.247,0,1,1,90,false,stim,false,0,892,3,0,0,88960,WMM2,729790,false,true,832,image-keyboard-response,24
true,7,2,3,2,true,d,false,true,0.0-2.0-0.27-0.248-3.248,0,1,1,68,false,stim,false,2,644,3,1,1,88960,WMM2,731972,false,false,835,image-keyboard-response,25
true,7,2,3,2,true,d,false,true,0.0-2.0-0.27-0.249-3.249,0,1,1,68,false,stim,false,2,629,3,1,1,88960,WMM2,734126,false,false,838,image-keyboard-response,26
true,7,2,3,2,true,d,false,true,0.0-2.0-0.27-0.250-3.250,0,1,1,68,false,stim,false,2,436,3,1,1,88960,WMM2,736105,false,false,841,image-keyboard-response,27
true,7,2,3,0,false,q,true,false,0.0-2.0-0.27-0.251-3.251,0,1,1,68,false,stim,false,0,566,3,0,2,88960,WMM2,738213,false,false,844,image-keyboard-response,28
true,7,0,3,1,false,z,false,false,0.0-2.0-0.28-0.252-3.252,0,1,1,81,false,stim,true,0,1507,3,0,0,88960,WMM2,741244,false,false,847,image-keyboard-response,29
true,7,2,3,1,false,z,true,false,0.0-2.0-0.28-0.253-3.253,0,1,1,68,false,stim,false,0,552,3,0,0,88960,WMM2,743320,false,false,850,image-keyboard-response,30
true,8,1,1,0,false,q,false,false,0.0-2.0-0.28-0.254-3.254,0,1,0,90,true,stim,true,1,602,3,0,0,88960,WMM2,745447,false,false,853,image-keyboard-response,1
true,8,2,1,2,true,d,false,false,0.0-2.0-0.28-0.255-3.255,0,1,0,68,false,stim,false,0,985,3,0,2,88960,WMM2,747973,false,true,856,image-keyboard-response,2
true,8,2,1,2,true,d,false,true,0.0-2.0-0.28-0.256-3.256,0,1,0,68,false,stim,false,2,526,3,1,1,88960,WMM2,750021,false,false,859,image-keyboard-response,3
true,8,2,1,2,true,d,false,true,0.0-2.0-0.28-0.257-3.257,0,1,0,68,false,stim,false,2,620,3,1,1,88960,WMM2,752176,false,false,862,image-keyboard-response,4
true,8,2,1,2,true,d,false,true,0.0-2.0-0.28-0.258-3.258,0,1,0,68,false,stim,false,2,487,3,1,1,88960,WMM2,754192,false,false,865,image-keyboard-response,5
true,8,1,1,2,false,d,true,false,0.0-2.0-0.28-0.259-3.259,0,1,0,90,false,stim,false,0,551,3,0,2,88960,WMM2,756260,false,false,868,image-keyboard-response,6
true,8,0,1,2,false,d,false,false,0.0-2.0-0.28-0.260-3.260,0,1,0,81,false,stim,true,0,1617,3,0,2,88960,WMM2,759404,false,false,871,image-keyboard-response,7
true,8,2,1,2,true,d,false,true,0.0-2.0-0.29-0.261-3.261,0,1,0,68,false,stim,false,2,566,3,1,1,88960,WMM2,761504,false,false,874,image-keyboard-response,8
true,8,1,1,0,false,q,false,false,0.0-2.0-0.29-0.262-3.262,0,1,0,90,false,stim,true,1,1524,3,0,0,88960,WMM2,764560,false,false,877,image-keyboard-response,9
true,8,1,1,0,false,q,false,true,0.0-2.0-0.29-0.263-3.263,0,1,0,90,false,stim,true,1,506,3,0,0,88960,WMM2,766584,false,true,880,image-keyboard-response,10
true,8,0,1,2,false,d,false,false,0.0-2.0-0.29-0.264-3.264,0,1,0,81,false,stim,true,0,759,3,0,2,88960,WMM2,768877,false,false,883,image-keyboard-response,11
true,8,1,1,2,false,d,true,false,0.0-2.0-0.29-0.265-3.265,0,1,0,90,false,stim,false,0,378,3,0,2,88960,WMM2,770784,false,false,886,image-keyboard-response,12
true,8,1,1,0,false,q,false,false,0.0-2.0-0.29-0.266-3.266,0,1,0,90,false,stim,true,1,1454,3,0,0,88960,WMM2,773774,false,false,889,image-keyboard-response,13
true,8,2,1,2,true,d,false,true,0.0-2.0-0.29-0.267-3.267,0,1,0,68,false,stim,false,2,571,3,1,1,88960,WMM2,775868,false,false,892,image-keyboard-response,14
true,8,1,1,2,false,d,true,false,0.0-2.0-0.29-0.268-3.268,0,1,0,90,false,stim,false,0,2309,3,0,2,88960,WMM2,779717,false,false,895,image-keyboard-response,15
true,8,2,1,2,true,d,false,true,0.0-2.0-0.29-0.269-3.269,0,1,0,68,false,stim,false,2,609,3,1,1,88960,WMM2,781857,false,false,898,image-keyboard-response,16
true,8,0,1,0,true,q,false,true,0.0-2.0-0.30-0.270-3.270,0,1,0,81,false,stim,false,1,981,3,0,0,88960,WMM2,784373,false,false,901,image-keyboard-response,17
true,8,1,1,2,false,d,true,false,0.0-2.0-0.30-0.271-3.271,0,1,0,90,false,stim,false,0,1270,3,0,2,88960,WMM2,787166,false,false,904,image-keyboard-response,18
true,8,2,1,2,true,d,false,true,0.0-2.0-0.30-0.272-3.272,0,1,0,68,false,stim,false,2,639,3,1,1,88960,WMM2,789330,false,false,907,image-keyboard-response,19
true,8,2,1,2,true,d,false,true,0.0-2.0-0.30-0.273-3.273,0,1,0,68,false,stim,false,2,486,3,1,1,88960,WMM2,791341,false,false,910,image-keyboard-response,20
true,8,2,1,2,true,d,false,true,0.0-2.0-0.30-0.274-3.274,0,1,0,68,false,stim,false,2,428,3,1,1,88960,WMM2,793304,false,false,913,image-keyboard-response,21
true,8,0,1,2,false,d,false,false,0.0-2.0-0.30-0.275-3.275,0,1,0,81,false,stim,true,0,1760,3,0,2,88960,WMM2,796608,false,false,916,image-keyboard-response,22
true,8,2,1,2,true,d,false,true,0.0-2.0-0.30-0.276-3.276,0,1,0,68,false,stim,false,0,651,3,0,2,88960,WMM2,798809,false,false,919,image-keyboard-response,23
true,8,0,1,0,true,q,false,true,0.0-2.0-0.30-0.277-3.277,0,1,0,81,false,stim,false,1,801,3,0,0,88960,WMM2,801149,false,false,922,image-keyboard-response,24
true,8,0,1,0,true,q,false,true,0.0-2.0-0.30-0.278-3.278,0,1,0,81,false,stim,false,1,582,3,0,0,88960,WMM2,803260,false,false,925,image-keyboard-response,25
true,8,0,1,0,true,q,false,true,0.0-2.0-0.31-0.279-3.279,0,1,0,81,false,stim,false,1,547,3,0,0,88960,WMM2,805335,false,false,928,image-keyboard-response,26
true,8,0,1,2,false,d,false,false,0.0-2.0-0.31-0.280-3.280,0,1,0,81,false,stim,true,0,1361,3,0,2,88960,WMM2,808218,false,false,931,image-keyboard-response,27
true,8,2,1,2,true,d,false,true,0.0-2.0-0.31-0.281-3.281,0,1,0,68,false,stim,false,2,645,3,1,1,88960,WMM2,810392,false,false,934,image-keyboard-response,28
true,8,2,1,2,true,d,false,true,0.0-2.0-0.31-0.282-3.282,0,1,0,68,false,stim,false,0,360,3,0,2,88960,WMM2,812288,false,false,937,image-keyboard-response,29
true,8,0,1,0,true,q,false,true,0.0-2.0-0.31-0.283-3.283,0,1,0,81,false,stim,false,1,1241,3,0,0,88960,WMM2,815059,false,false,940,image-keyboard-response,30
true,8,0,1,0,true,q,false,true,0.0-2.0-0.31-0.284-3.284,0,1,0,81,false,stim,false,1,620,3,0,0,88960,WMM2,817216,false,false,943,image-keyboard-response,31
true,8,2,1,2,true,d,false,true,0.0-2.0-0.31-0.285-3.285,0,1,0,68,false,stim,false,2,1155,3,1,1,88960,WMM2,819912,false,false,946,image-keyboard-response,32
true,8,2,1,2,true,d,false,true,0.0-2.0-0.31-0.286-3.286,0,1,0,68,false,stim,false,2,377,3,1,1,88960,WMM2,821824,false,false,949,image-keyboard-response,33
true,8,2,1,2,true,d,false,true,0.0-2.0-0.31-0.287-3.287,0,1,0,68,false,stim,false,0,992,3,0,2,88960,WMM2,824360,false,false,952,image-keyboard-response,34
true,8,2,1,2,true,d,false,true,0.0-2.0-0.32-0.288-3.288,0,1,0,68,false,stim,false,0,489,3,0,2,88960,WMM2,826376,false,false,955,image-keyboard-response,35
true,8,0,1,0,true,q,false,false,0.0-2.0-0.32-0.289-3.289,0,1,0,81,false,stim,false,1,940,3,1,0,88960,WMM2,828849,false,true,958,image-keyboard-response,36
true,8,2,1,2,true,d,false,true,0.0-2.0-0.32-0.290-3.290,0,1,0,68,false,stim,false,2,639,3,1,1,88960,WMM2,831016,false,false,961,image-keyboard-response,37
true,8,2,1,2,true,d,false,false,0.0-2.0-0.32-0.291-3.291,0,1,0,68,false,stim,false,0,835,3,0,2,88960,WMM2,833392,false,true,964,image-keyboard-response,38
true,8,1,1,0,false,q,false,false,0.0-2.0-0.32-0.292-3.292,0,1,0,90,false,stim,true,1,1114,3,1,0,88960,WMM2,836041,false,false,967,image-keyboard-response,39
true,8,0,1,0,true,q,false,true,0.0-2.0-0.32-0.293-3.293,0,1,0,81,false,stim,false,1,974,3,1,0,88960,WMM2,838552,false,false,970,image-keyboard-response,40
true,8,2,1,2,true,d,false,true,0.0-2.0-0.32-0.294-3.294,0,1,0,68,false,stim,false,0,577,3,0,2,88960,WMM2,840664,false,false,973,image-keyboard-response,41
true,8,2,1,2,true,d,false,true,0.0-2.0-0.32-0.295-3.295,0,1,0,68,false,stim,false,2,679,3,1,1,88960,WMM2,842877,false,false,976,image-keyboard-response,42
true,8,2,1,2,true,d,false,true,0.0-2.0-0.32-0.296-3.296,0,1,0,68,false,stim,false,2,475,3,1,1,88960,WMM2,844884,false,false,979,image-keyboard-response,43
true,8,2,1,2,true,d,false,true,0.0-2.0-0.33-0.297-3.297,0,1,0,68,false,stim,false,0,1287,3,0,2,88960,WMM2,847699,false,false,982,image-keyboard-response,44
true,9,0,3,0,true,q,false,true,0.0-2.0-0.33-0.298-3.298,1,1,0,81,true,stim,false,0,1447,3,1,0,88960,WMM2,850676,false,false,985,image-keyboard-response,1
true,9,2,3,2,true,d,false,true,0.0-2.0-0.33-0.299-3.299,1,1,0,68,false,stim,false,2,1333,3,1,1,88960,WMM2,853552,false,false,988,image-keyboard-response,2
true,9,0,3,0,true,q,false,true,0.0-2.0-0.33-0.300-3.300,1,1,0,81,false,stim,false,0,820,3,1,0,88960,WMM2,855908,false,false,991,image-keyboard-response,3
true,9,0,3,0,true,q,false,true,0.0-2.0-0.33-0.301-3.301,1,1,0,81,false,stim,false,0,755,3,1,0,88960,WMM2,858188,false,false,994,image-keyboard-response,4
true,9,2,3,2,true,d,false,true,0.0-2.0-0.33-0.302-3.302,1,1,0,68,false,stim,false,2,644,3,1,1,88960,WMM2,860352,false,false,997,image-keyboard-response,5
true,9,2,3,1,false,z,false,false,0.0-2.0-0.33-0.303-3.303,1,1,0,68,false,stim,true,2,1755,3,0,2,88960,WMM2,863644,false,false,1000,image-keyboard-response,6
true,9,2,3,2,true,d,false,true,0.0-2.0-0.33-0.304-3.304,1,1,0,68,false,stim,false,2,1624,3,1,1,88960,WMM2,866812,false,false,1003,image-keyboard-response,7
true,9,2,3,1,false,z,false,false,0.0-2.0-0.33-0.305-3.305,1,1,0,68,false,stim,true,2,1473,3,0,2,88960,WMM2,869820,false,false,1006,image-keyboard-response,8
true,9,1,3,1,true,z,false,true,0.0-2.0-0.34-0.306-3.306,1,1,0,90,false,stim,false,2,704,3,0,2,88960,WMM2,872060,false,false,1009,image-keyboard-response,9
true,9,0,3,0,true,q,false,true,0.0-2.0-0.34-0.307-3.307,1,1,0,81,false,stim,false,0,1353,3,1,0,88960,WMM2,874940,false,false,1012,image-keyboard-response,10
true,9,0,3,0,true,q,false,true,0.0-2.0-0.34-0.308-3.308,1,1,0,81,false,stim,false,0,760,3,1,0,88960,WMM2,877237,false,false,1015,image-keyboard-response,11
true,9,2,3,1,false,z,false,false,0.0-2.0-0.34-0.309-3.309,1,1,0,68,false,stim,true,2,1213,3,0,2,88960,WMM2,879977,false,false,1018,image-keyboard-response,12
true,9,0,3,0,true,q,false,false,0.0-2.0-0.34-0.310-3.310,1,1,0,81,false,stim,false,0,869,3,1,0,88960,WMM2,882376,false,true,1021,image-keyboard-response,13
true,9,2,3,2,true,d,false,true,0.0-2.0-0.34-0.311-3.311,1,1,0,68,false,stim,false,2,641,3,1,1,88960,WMM2,884548,false,false,1024,image-keyboard-response,14
true,9,2,3,2,true,d,false,true,0.0-2.0-0.34-0.312-3.312,1,1,0,68,false,stim,false,2,733,3,1,1,88960,WMM2,886820,false,false,1027,image-keyboard-response,15
true,9,2,3,2,true,d,false,true,0.0-2.0-0.34-0.313-3.313,1,1,0,68,false,stim,false,2,692,3,1,1,88960,WMM2,889040,false,false,1030,image-keyboard-response,16
true,9,1,3,1,true,z,false,false,0.0-2.0-0.34-0.314-3.314,1,1,0,90,false,stim,false,2,861,3,0,2,88960,WMM2,891439,false,true,1033,image-keyboard-response,17
true,9,1,3,0,false,q,true,false,0.0-2.0-0.35-0.315-3.315,1,1,0,90,false,stim,false,0,900,3,1,0,88960,WMM2,893868,false,false,1036,image-keyboard-response,18
true,9,2,3,2,true,d,false,true,0.0-2.0-0.35-0.316-3.316,1,1,0,68,false,stim,false,2,1083,3,1,1,88960,WMM2,896476,false,false,1039,image-keyboard-response,19
true,9,2,3,2,true,d,false,true,0.0-2.0-0.35-0.317-3.317,1,1,0,68,false,stim,false,2,711,3,1,1,88960,WMM2,898720,false,false,1042,image-keyboard-response,20
true,9,0,3,1,false,z,true,false,0.0-2.0-0.35-0.318-3.318,1,1,0,81,false,stim,false,2,1088,3,0,2,88960,WMM2,901357,false,false,1045,image-keyboard-response,21
true,9,0,3,0,true,q,false,true,0.0-2.0-0.35-0.319-3.319,1,1,0,81,false,stim,false,0,807,3,1,0,88960,WMM2,903696,false,false,1048,image-keyboard-response,22
true,9,0,3,0,true,q,false,true,0.0-2.0-0.35-0.320-3.320,1,1,0,81,false,stim,false,0,671,3,1,0,88960,WMM2,905899,false,false,1051,image-keyboard-response,23
true,9,2,3,1,false,z,false,false,0.0-2.0-0.35-0.321-3.321,1,1,0,68,false,stim,true,2,432,3,0,2,88960,WMM2,907868,false,false,1054,image-keyboard-response,24
true,9,2,3,1,false,z,false,false,0.0-2.0-0.35-0.322-3.322,1,1,0,68,false,stim,true,2,346,3,0,2,88960,WMM2,909763,false,false,1057,image-keyboard-response,25
true,9,2,3,2,true,d,false,true,0.0-2.0-0.35-0.323-3.323,1,1,0,68,false,stim,false,2,700,3,1,1,88960,WMM2,912008,false,false,1060,image-keyboard-response,26
true,9,0,3,2,false,d,true,false,0.0-2.0-0.36-0.324-3.324,1,1,0,81,false,stim,false,2,584,3,1,1,88960,WMM2,914112,false,false,1063,image-keyboard-response,27
true,9,0,3,1,false,z,true,true,0.0-2.0-0.36-0.325-3.325,1,1,0,81,false,stim,false,2,584,3,0,2,88960,WMM2,916233,false,true,1066,image-keyboard-response,28
true,9,0,3,0,true,q,false,true,0.0-2.0-0.36-0.326-3.326,1,1,0,81,false,stim,false,0,456,3,1,0,88960,WMM2,918223,false,false,1069,image-keyboard-response,29
true,9,0,3,1,false,z,true,false,0.0-2.0-0.36-0.327-3.327,1,1,0,81,false,stim,false,2,511,3,0,2,88960,WMM2,920268,false,false,1072,image-keyboard-response,30
true,9,0,3,0,true,q,false,true,0.0-2.0-0.36-0.328-3.328,1,1,0,81,false,stim,false,0,935,3,1,0,88960,WMM2,922743,false,false,1075,image-keyboard-response,31
true,9,2,3,2,true,d,false,true,0.0-2.0-0.36-0.329-3.329,1,1,0,68,false,stim,false,2,1547,3,1,1,88960,WMM2,925824,false,false,1078,image-keyboard-response,32
true,9,2,3,2,true,d,false,true,0.0-2.0-0.36-0.330-3.330,1,1,0,68,false,stim,false,2,389,3,1,1,88960,WMM2,927756,false,false,1081,image-keyboard-response,33
true,9,0,3,1,false,z,true,false,0.0-2.0-0.36-0.331-3.331,1,1,0,81,false,stim,false,2,1011,3,0,2,88960,WMM2,930291,false,false,1084,image-keyboard-response,34
true,9,0,3,0,true,q,false,true,0.0-2.0-0.36-0.332-3.332,1,1,0,81,false,stim,false,0,535,3,1,0,88960,WMM2,932352,false,false,1087,image-keyboard-response,35
true,9,0,3,1,false,z,true,false,0.0-2.0-0.37-0.333-3.333,1,1,0,81,false,stim,false,2,735,3,0,2,88960,WMM2,934612,false,false,1090,image-keyboard-response,36
true,9,0,3,0,true,q,false,true,0.0-2.0-0.37-0.334-3.334,1,1,0,81,false,stim,false,0,851,3,1,0,88960,WMM2,937008,false,false,1093,image-keyboard-response,37
true,9,2,3,2,true,d,false,true,0.0-2.0-0.37-0.335-3.335,1,1,0,68,false,stim,false,2,663,3,1,1,88960,WMM2,939212,false,false,1096,image-keyboard-response,38
true,9,0,3,0,true,q,false,true,0.0-2.0-0.37-0.336-3.336,1,1,0,81,false,stim,false,0,1211,3,1,0,88960,WMM2,941948,false,false,1099,image-keyboard-response,39
true,9,1,3,1,true,z,false,false,0.0-2.0-0.37-0.337-3.337,1,1,0,90,false,stim,false,2,774,3,0,2,88960,WMM2,944292,false,true,1102,image-keyboard-response,40
true,9,0,3,0,true,q,false,true,0.0-2.0-0.37-0.338-3.338,1,1,0,81,false,stim,false,0,929,3,1,0,88960,WMM2,946766,false,false,1105,image-keyboard-response,41
true,9,2,3,2,true,d,false,true,0.0-2.0-0.37-0.339-3.339,1,1,0,68,false,stim,false,2,986,3,1,1,88960,WMM2,949284,false,false,1108,image-keyboard-response,42
true,9,2,3,2,true,d,false,true,0.0-2.0-0.37-0.340-3.340,1,1,0,68,false,stim,false,2,522,3,1,1,88960,WMM2,951340,false,false,1111,image-keyboard-response,43
true,9,1,3,1,true,z,false,true,0.0-2.0-0.37-0.341-3.341,1,1,0,90,false,stim,false,2,1788,3,0,2,88960,WMM2,954664,false,false,1114,image-keyboard-response,44
true,9,0,3,0,true,q,false,true,0.0-2.0-0.38-0.342-3.342,1,1,0,81,false,stim,false,0,965,3,1,0,88960,WMM2,957172,false,false,1117,image-keyboard-response,45
true,9,0,3,0,true,q,false,true,0.0-2.0-0.38-0.343-3.343,1,1,0,81,false,stim,false,0,902,3,1,0,88960,WMM2,959597,false,false,1120,image-keyboard-response,46
true,9,0,3,0,true,q,false,true,0.0-2.0-0.38-0.344-3.344,1,1,0,81,false,stim,false,0,729,3,1,0,88960,WMM2,961857,false,false,1123,image-keyboard-response,47
true,9,1,3,1,true,z,false,true,0.0-2.0-0.38-0.345-3.345,1,1,0,90,false,stim,false,2,821,3,0,2,88960,WMM2,964208,false,false,1126,image-keyboard-response,48
true,9,2,3,2,true,d,false,true,0.0-2.0-0.38-0.346-3.346,1,1,0,68,false,stim,false,2,779,3,1,1,88960,WMM2,966516,false,false,1129,image-keyboard-response,49
true,9,2,3,2,true,d,false,true,0.0-2.0-0.38-0.347-3.347,1,1,0,68,false,stim,false,2,445,3,1,1,88960,WMM2,968503,false,false,1132,image-keyboard-response,50
true,9,1,3,1,true,z,false,true,0.0-2.0-0.38-0.348-3.348,1,1,0,90,false,stim,false,2,991,3,0,2,88960,WMM2,971028,false,false,1135,image-keyboard-response,51
true,9,0,3,2,false,d,true,true,0.0-2.0-0.38-0.349-3.349,1,1,0,81,false,stim,false,2,1742,3,1,1,88960,WMM2,974289,false,true,1138,image-keyboard-response,52
true,9,1,3,1,true,z,false,true,0.0-2.0-0.38-0.350-3.350,1,1,0,90,false,stim,false,2,1155,3,0,2,88960,WMM2,976972,false,false,1141,image-keyboard-response,53
true,9,0,3,2,false,d,true,false,0.0-2.0-0.39-0.351-3.351,1,1,0,81,false,stim,false,2,838,3,1,1,88960,WMM2,979337,false,false,1144,image-keyboard-response,54
true,10,0,4,0,true,q,false,true,0.0-2.0-0.39-0.352-3.352,1,1,0,81,true,stim,false,0,1391,3,1,0,88960,WMM2,982258,false,false,1147,image-keyboard-response,1
true,10,0,4,2,false,d,true,false,0.0-2.0-0.39-0.353-3.353,1,1,0,81,false,stim,false,2,1772,3,1,1,88960,WMM2,985559,false,false,1150,image-keyboard-response,2
true,10,1,4,1,true,z,false,true,0.0-2.0-0.39-0.354-3.354,1,1,0,90,false,stim,false,1,708,3,0,2,88960,WMM2,987794,false,false,1153,image-keyboard-response,3
true,10,0,4,0,true,q,false,true,0.0-2.0-0.39-0.355-3.355,1,1,0,81,false,stim,false,0,948,3,1,0,88960,WMM2,990284,false,false,1156,image-keyboard-response,4
true,10,2,4,2,true,d,false,true,0.0-2.0-0.39-0.356-3.356,1,1,0,68,false,stim,false,2,300,3,1,1,88960,WMM2,992123,false,false,1159,image-keyboard-response,5
true,10,1,4,1,true,z,false,false,0.0-2.0-0.39-0.357-3.357,1,1,0,90,false,stim,false,1,2197,3,0,2,88960,WMM2,995857,false,true,1162,image-keyboard-response,6
true,10,1,4,1,true,z,false,true,0.0-2.0-0.39-0.358-3.358,1,1,0,90,false,stim,false,1,621,3,0,2,88960,WMM2,998009,false,false,1165,image-keyboard-response,7
true,10,0,4,0,true,q,false,true,0.0-2.0-0.39-0.359-3.359,1,1,0,81,false,stim,false,0,990,3,1,0,88960,WMM2,1000528,false,false,1168,image-keyboard-response,8
true,10,1,4,1,true,z,false,false,0.0-2.0-0.40-0.360-3.360,1,1,0,90,false,stim,false,1,1045,3,0,2,88960,WMM2,1003102,false,true,1171,image-keyboard-response,9
true,10,0,4,0,true,q,false,false,0.0-2.0-0.40-0.361-3.361,1,1,0,81,false,stim,false,0,1165,3,1,0,88960,WMM2,1005804,false,true,1174,image-keyboard-response,10
true,10,1,4,1,true,z,false,true,0.0-2.0-0.40-0.362-3.362,1,1,0,90,false,stim,false,1,849,3,0,2,88960,WMM2,1008196,false,false,1177,image-keyboard-response,11
true,10,2,4,2,true,d,false,false,0.0-2.0-0.40-0.363-3.363,1,1,0,68,false,stim,false,2,780,3,1,1,88960,WMM2,1010508,false,true,1180,image-keyboard-response,12
true,10,0,4,2,false,d,true,false,0.0-2.0-0.40-0.364-3.364,1,1,0,81,false,stim,false,2,842,3,1,1,88960,WMM2,1012880,false,false,1183,image-keyboard-response,13
true,10,0,4,0,true,q,false,true,0.0-2.0-0.40-0.365-3.365,1,1,0,81,false,stim,false,0,1957,3,1,0,88960,WMM2,1016363,false,false,1186,image-keyboard-response,14
true,10,0,4,0,true,q,false,true,0.0-2.0-0.40-0.366-3.366,1,1,0,81,false,stim,false,0,1356,3,1,0,88960,WMM2,1019264,false,false,1189,image-keyboard-response,15
true,10,2,4,2,true,d,false,true,0.0-2.0-0.40-0.367-3.367,1,1,0,68,false,stim,false,2,1836,3,1,1,88960,WMM2,1022643,false,false,1192,image-keyboard-response,16
true,10,1,4,1,true,z,false,true,0.0-2.0-0.40-0.368-3.368,1,1,0,90,false,stim,false,1,2028,3,0,2,88960,WMM2,1026195,false,false,1195,image-keyboard-response,17
true,10,2,4,2,true,d,false,true,0.0-2.0-0.41-0.369-3.369,1,1,0,68,false,stim,false,2,967,3,1,1,88960,WMM2,1028703,false,false,1198,image-keyboard-response,18
true,10,0,4,0,true,q,false,true,0.0-2.0-0.41-0.370-3.370,1,1,0,81,false,stim,false,0,1010,3,1,0,88960,WMM2,1031260,false,false,1201,image-keyboard-response,19
true,10,0,4,0,true,q,false,false,0.0-2.0-0.41-0.371-3.371,1,1,0,81,false,stim,false,0,822,3,1,0,88960,WMM2,1033619,false,true,1204,image-keyboard-response,20
true,10,1,4,1,true,z,false,true,0.0-2.0-0.41-0.372-3.372,1,1,0,90,false,stim,false,1,1497,3,1,2,88960,WMM2,1036645,false,false,1207,image-keyboard-response,21
true,10,0,4,0,true,q,false,true,0.0-2.0-0.41-0.373-3.373,1,1,0,81,false,stim,false,0,749,3,0,0,88960,WMM2,1038935,false,false,1210,image-keyboard-response,22
true,10,1,4,1,true,z,false,true,0.0-2.0-0.41-0.374-3.374,1,1,0,90,false,stim,false,1,1570,3,1,2,88960,WMM2,1042027,false,false,1213,image-keyboard-response,23
true,10,2,4,2,true,d,false,true,0.0-2.0-0.41-0.375-3.375,1,1,0,68,false,stim,false,2,1324,3,1,1,88960,WMM2,1044892,false,false,1216,image-keyboard-response,24
true,10,0,4,1,false,z,true,true,0.0-2.0-0.41-0.376-3.376,1,1,0,81,false,stim,false,1,856,3,1,2,88960,WMM2,1047262,false,true,1219,image-keyboard-response,25
true,10,2,4,2,true,d,false,false,0.0-2.0-0.41-0.377-3.377,1,1,0,68,false,stim,false,2,2096,3,1,1,88960,WMM2,1050884,false,true,1222,image-keyboard-response,26
true,10,0,4,2,false,d,true,false,0.0-2.0-0.42-0.378-3.378,1,1,0,81,false,stim,false,2,1040,3,1,1,88960,WMM2,1053457,false,false,1225,image-keyboard-response,27
true,10,0,4,0,true,q,false,true,0.0-2.0-0.42-0.379-3.379,1,1,0,81,false,stim,false,0,826,3,0,0,88960,WMM2,1055814,false,false,1228,image-keyboard-response,28
true,10,2,4,2,true,d,false,true,0.0-2.0-0.42-0.380-3.380,1,1,0,68,false,stim,false,2,1023,3,1,1,88960,WMM2,1058379,false,false,1231,image-keyboard-response,29
true,10,0,4,0,true,q,false,true,0.0-2.0-0.42-0.381-3.381,1,1,0,81,false,stim,false,0,1295,3,0,0,88960,WMM2,1061204,false,false,1234,image-keyboard-response,30
true,11,2,2,2,true,d,false,true,0.0-2.0-0.42-0.382-3.382,0,1,1,68,true,stim,false,0,1053,3,0,0,88960,WMM2,1063789,false,false,1237,image-keyboard-response,1
true,11,1,2,1,true,z,false,true,0.0-2.0-0.42-0.383-3.383,0,1,1,90,false,stim,false,1,2251,3,1,2,88960,WMM2,1067568,false,false,1240,image-keyboard-response,2
true,11,1,2,1,true,z,false,false,0.0-2.0-0.42-0.384-3.384,0,1,1,90,false,stim,false,1,1180,3,1,2,88960,WMM2,1070278,false,true,1243,image-keyboard-response,3
true,11,1,2,1,true,z,false,true,0.0-2.0-0.42-0.385-3.385,0,1,1,90,false,stim,false,1,688,3,1,2,88960,WMM2,1072496,false,false,1246,image-keyboard-response,4
true,11,2,2,2,true,d,false,true,0.0-2.0-0.42-0.386-3.386,0,1,1,68,false,stim,false,2,992,3,1,1,88960,WMM2,1075020,false,false,1249,image-keyboard-response,5
true,11,1,2,1,true,z,false,true,0.0-2.0-0.43-0.387-3.387,0,1,1,90,false,stim,false,1,1496,3,1,2,88960,WMM2,1078044,false,false,1252,image-keyboard-response,6
true,11,2,2,2,true,d,false,true,0.0-2.0-0.43-0.388-3.388,0,1,1,68,false,stim,false,2,2636,3,1,1,88960,WMM2,1082224,false,false,1255,image-keyboard-response,7
true,11,1,2,1,true,z,false,true,0.0-2.0-0.43-0.389-3.389,0,1,1,90,false,stim,false,1,837,3,1,2,88960,WMM2,1084604,false,false,1258,image-keyboard-response,8
true,11,0,2,2,false,d,false,false,0.0-2.0-0.43-0.390-3.390,0,1,1,81,false,stim,true,0,1171,3,0,0,88960,WMM2,1087308,false,false,1261,image-keyboard-response,9
true,11,2,2,2,true,d,false,true,0.0-2.0-0.43-0.391-3.391,0,1,1,68,false,stim,false,2,1164,3,1,1,88960,WMM2,1090008,false,false,1264,image-keyboard-response,10
true,11,0,2,2,false,d,false,false,0.0-2.0-0.43-0.392-3.392,0,1,1,81,false,stim,true,0,1693,3,0,0,88960,WMM2,1093232,false,false,1267,image-keyboard-response,11
true,11,2,2,2,true,d,false,true,0.0-2.0-0.43-0.393-3.393,0,1,1,68,false,stim,false,2,633,3,1,1,88960,WMM2,1095399,false,false,1270,image-keyboard-response,12
true,11,1,2,1,true,z,false,false,0.0-2.0-0.43-0.394-3.394,0,1,1,90,false,stim,false,1,763,3,1,2,88960,WMM2,1097700,false,true,1273,image-keyboard-response,13
true,11,1,2,2,false,d,true,false,0.0-2.0-0.43-0.395-3.395,0,1,1,90,false,stim,false,0,814,3,0,0,88960,WMM2,1100051,false,false,1276,image-keyboard-response,14
true,11,2,2,2,true,d,false,true,0.0-2.0-0.44-0.396-3.396,0,1,1,68,false,stim,false,0,699,3,0,0,88960,WMM2,1102286,false,false,1279,image-keyboard-response,15
true,11,1,2,1,true,z,false,true,0.0-2.0-0.44-0.397-3.397,0,1,1,90,false,stim,false,1,1056,3,1,2,88960,WMM2,1104883,false,false,1282,image-keyboard-response,16
true,11,1,2,1,true,z,false,true,0.0-2.0-0.44-0.398-3.398,0,1,1,90,false,stim,false,1,809,3,1,2,88960,WMM2,1107226,false,false,1285,image-keyboard-response,17
true,11,2,2,2,true,d,false,true,0.0-2.0-0.44-0.399-3.399,0,1,1,68,false,stim,false,0,763,3,0,0,88960,WMM2,1109520,false,false,1288,image-keyboard-response,18
true,11,1,2,1,true,z,false,true,0.0-2.0-0.44-0.400-3.400,0,1,1,90,false,stim,false,1,896,3,1,2,88960,WMM2,1111939,false,false,1291,image-keyboard-response,19
true,11,2,2,2,true,d,false,true,0.0-2.0-0.44-0.401-3.401,0,1,1,68,false,stim,false,2,524,3,1,1,88960,WMM2,1113992,false,false,1294,image-keyboard-response,20
true,11,2,2,2,true,d,false,true,0.0-2.0-0.44-0.402-3.402,0,1,1,68,false,stim,false,2,519,3,0,1,88960,WMM2,1116057,false,false,1297,image-keyboard-response,21
true,11,2,2,2,true,d,false,true,0.0-2.0-0.44-0.403-3.403,0,1,1,68,false,stim,false,0,1189,3,1,0,88960,WMM2,1118775,false,false,1300,image-keyboard-response,22
true,11,2,2,2,true,d,false,true,0.0-2.0-0.44-0.404-3.404,0,1,1,68,false,stim,false,2,747,3,0,1,88960,WMM2,1121063,false,false,1303,image-keyboard-response,23
true,11,2,2,2,true,d,false,true,0.0-2.0-0.45-0.405-3.405,0,1,1,68,false,stim,false,0,624,3,1,0,88960,WMM2,1123212,false,false,1306,image-keyboard-response,24
true,11,2,2,2,true,d,false,true,0.0-2.0-0.45-0.406-3.406,0,1,1,68,false,stim,false,0,528,3,1,0,88960,WMM2,1125276,false,false,1309,image-keyboard-response,25
true,11,2,2,2,true,d,false,true,0.0-2.0-0.45-0.407-3.407,0,1,1,68,false,stim,false,0,474,3,1,0,88960,WMM2,1127292,false,false,1312,image-keyboard-response,26
true,11,1,2,1,true,z,false,false,0.0-2.0-0.45-0.408-3.408,0,1,1,90,false,stim,false,1,1019,3,1,2,88960,WMM2,1129837,false,true,1315,image-keyboard-response,27
true,11,1,2,1,true,z,false,true,0.0-2.0-0.45-0.409-3.409,0,1,1,90,false,stim,false,1,541,3,1,2,88960,WMM2,1131904,false,false,1318,image-keyboard-response,28
true,11,1,2,1,true,z,false,true,0.0-2.0-0.45-0.410-3.410,0,1,1,90,false,stim,false,1,1191,3,1,2,88960,WMM2,1134628,false,false,1321,image-keyboard-response,29
true,11,2,2,2,true,d,false,true,0.0-2.0-0.45-0.411-3.411,0,1,1,68,false,stim,false,2,829,3,0,1,88960,WMM2,1136996,false,false,1324,image-keyboard-response,30
true,12,2,2,0,false,q,false,false,0.0-2.0-0.45-0.412-3.412,1,0,1,68,true,stim,true,2,490,3,0,1,88960,WMM2,1139028,false,false,1327,image-keyboard-response,1
true,12,2,2,0,false,q,false,false,0.0-2.0-0.45-0.413-3.413,1,0,1,68,false,stim,true,2,481,3,0,1,88960,WMM2,1141048,false,false,1330,image-keyboard-response,2
true,12,2,2,2,true,d,false,true,0.0-2.0-0.46-0.414-3.414,1,0,1,68,false,stim,false,2,1294,3,1,0,88960,WMM2,1143871,false,false,1333,image-keyboard-response,3
true,12,1,2,1,true,z,false,true,0.0-2.0-0.46-0.415-3.415,1,0,1,90,false,stim,false,1,792,3,1,2,88960,WMM2,1146191,false,false,1336,image-keyboard-response,4
true,12,1,2,1,true,z,false,true,0.0-2.0-0.46-0.416-3.416,1,0,1,90,false,stim,false,1,461,3,1,2,88960,WMM2,1148168,false,false,1339,image-keyboard-response,5
true,12,2,2,0,false,q,false,false,0.0-2.0-0.46-0.417-3.417,1,0,1,68,false,stim,true,2,2007,3,0,1,88960,WMM2,1151704,false,false,1342,image-keyboard-response,6
true,12,2,2,2,true,d,false,false,0.0-2.0-0.46-0.418-3.418,1,0,1,68,false,stim,false,2,1355,3,1,0,88960,WMM2,1154599,false,true,1345,image-keyboard-response,7
true,12,0,2,0,true,q,false,true,0.0-2.0-0.46-0.419-3.419,1,0,1,81,false,stim,false,2,862,3,0,1,88960,WMM2,1156999,false,false,1348,image-keyboard-response,8
true,12,0,2,0,true,q,false,true,0.0-2.0-0.46-0.420-3.420,1,0,1,81,false,stim,false,2,574,3,0,1,88960,WMM2,1159104,false,false,1351,image-keyboard-response,9
true,12,1,2,1,true,z,false,true,0.0-2.0-0.46-0.421-3.421,1,0,1,90,false,stim,false,1,1069,3,1,2,88960,WMM2,1161716,false,false,1354,image-keyboard-response,10
true,12,0,2,2,false,d,true,true,0.0-2.0-0.46-0.422-3.422,1,0,1,81,false,stim,false,2,887,3,1,0,88960,WMM2,1164145,false,true,1357,image-keyboard-response,11
true,12,0,2,2,false,d,true,false,0.0-2.0-0.47-0.423-3.423,1,0,1,81,false,stim,false,2,651,3,1,0,88960,WMM2,1166328,false,false,1360,image-keyboard-response,12
true,12,0,2,0,true,q,false,true,0.0-2.0-0.47-0.424-3.424,1,0,1,81,false,stim,false,2,973,3,0,1,88960,WMM2,1168831,false,false,1363,image-keyboard-response,13
true,12,1,2,2,false,d,true,false,0.0-2.0-0.47-0.425-3.425,1,0,1,90,false,stim,false,2,1256,3,1,0,88960,WMM2,1171624,false,false,1366,image-keyboard-response,14
true,12,1,2,1,true,z,false,false,0.0-2.0-0.47-0.426-3.426,1,0,1,90,false,stim,false,1,1200,3,1,2,88960,WMM2,1174357,false,true,1369,image-keyboard-response,15
true,12,0,2,0,true,q,false,true,0.0-2.0-0.47-0.427-3.427,1,0,1,81,false,stim,false,2,894,3,0,1,88960,WMM2,1176776,false,false,1372,image-keyboard-response,16
true,12,2,2,1,false,z,true,false,0.0-2.0-0.47-0.428-3.428,1,0,1,68,false,stim,false,1,642,3,1,2,88960,WMM2,1178940,false,false,1375,image-keyboard-response,17
true,12,0,2,2,false,d,true,false,0.0-2.0-0.47-0.429-3.429,1,0,1,81,false,stim,false,2,964,3,1,0,88960,WMM2,1181430,false,false,1378,image-keyboard-response,18
true,12,0,2,0,true,q,false,true,0.0-2.0-0.47-0.430-3.430,1,0,1,81,false,stim,false,2,957,3,0,1,88960,WMM2,1183924,false,false,1381,image-keyboard-response,19
true,12,0,2,1,false,z,true,false,0.0-2.0-0.47-0.431-3.431,1,0,1,81,false,stim,false,1,759,3,1,2,88960,WMM2,1186217,false,false,1384,image-keyboard-response,20
true,12,0,2,0,true,q,false,true,0.0-2.0-0.48-0.432-3.432,1,0,1,81,false,stim,false,2,883,3,0,1,88960,WMM2,1188640,false,false,1387,image-keyboard-response,21
true,12,1,2,1,true,z,false,true,0.0-2.0-0.48-0.433-3.433,1,0,1,90,false,stim,false,1,375,3,1,2,88960,WMM2,1190552,false,false,1390,image-keyboard-response,22
true,12,2,2,2,true,d,false,true,0.0-2.0-0.48-0.434-3.434,1,0,1,68,false,stim,false,2,750,3,1,0,88960,WMM2,1192836,false,false,1393,image-keyboard-response,23
true,12,0,2,0,true,q,false,true,0.0-2.0-0.48-0.435-3.435,1,0,1,81,false,stim,false,2,889,3,0,1,88960,WMM2,1195268,false,false,1396,image-keyboard-response,24
true,12,2,2,2,true,d,false,true,0.0-2.0-0.48-0.436-3.436,1,0,1,68,false,stim,false,2,766,3,1,0,88960,WMM2,1197584,false,false,1399,image-keyboard-response,25
true,12,0,2,0,true,q,false,true,0.0-2.0-0.48-0.437-3.437,1,0,1,81,false,stim,false,2,1044,3,0,1,88960,WMM2,1200191,false,false,1402,image-keyboard-response,26
true,12,2,2,1,false,z,true,false,0.0-2.0-0.48-0.438-3.438,1,0,1,68,false,stim,false,1,1342,3,1,2,88960,WMM2,1203080,false,false,1405,image-keyboard-response,27
true,12,1,2,1,true,z,false,true,0.0-2.0-0.48-0.439-3.439,1,0,1,90,false,stim,false,1,400,3,1,2,88960,WMM2,1205028,false,false,1408,image-keyboard-response,28
true,12,2,2,2,true,d,false,true,0.0-2.0-0.48-0.440-3.440,1,0,1,68,false,stim,false,2,659,3,1,0,88960,WMM2,1207216,false,false,1411,image-keyboard-response,29
true,12,2,2,2,true,d,false,true,0.0-2.0-0.49-0.441-3.441,1,0,1,68,false,stim,false,2,395,3,1,0,88960,WMM2,1209143,false,false,1414,image-keyboard-response,30
true,12,0,2,0,true,q,false,true,0.0-2.0-0.49-0.442-3.442,1,0,1,81,false,stim,false,2,930,3,0,1,88960,WMM2,1211617,false,false,1417,image-keyboard-response,31
true,12,1,2,1,true,z,false,true,0.0-2.0-0.49-0.443-3.443,1,0,1,90,false,stim,false,1,1837,3,1,2,88960,WMM2,1214996,false,false,1420,image-keyboard-response,32
true,12,2,2,2,true,d,false,true,0.0-2.0-0.49-0.444-3.444,1,0,1,68,false,stim,false,2,603,3,1,0,88960,WMM2,1217151,false,false,1423,image-keyboard-response,33
true,12,2,2,2,true,d,false,true,0.0-2.0-0.49-0.445-3.445,1,0,1,68,false,stim,false,2,744,3,1,0,88960,WMM2,1219416,false,false,1426,image-keyboard-response,34
true,12,0,2,0,true,q,false,true,0.0-2.0-0.49-0.446-3.446,1,0,1,81,false,stim,false,2,786,3,1,1,88960,WMM2,1221744,false,false,1429,image-keyboard-response,35
true,12,0,2,0,true,q,false,true,0.0-2.0-0.49-0.447-3.447,1,0,1,81,false,stim,false,2,550,3,1,1,88960,WMM2,1223816,false,false,1432,image-keyboard-response,36
true,12,1,2,1,true,z,false,true,0.0-2.0-0.49-0.448-3.448,1,0,1,90,false,stim,false,1,783,3,0,2,88960,WMM2,1226139,false,false,1435,image-keyboard-response,37
true,12,1,2,1,true,z,false,true,0.0-2.0-0.49-0.449-3.449,1,0,1,90,false,stim,false,1,682,3,0,2,88960,WMM2,1228352,false,false,1438,image-keyboard-response,38
true,12,1,2,1,true,z,false,true,0.0-2.0-0.50-0.450-3.450,1,0,1,90,false,stim,false,1,379,3,0,2,88960,WMM2,1230256,false,false,1441,image-keyboard-response,39
true,12,1,2,1,true,z,false,true,0.0-2.0-0.50-0.451-3.451,1,0,1,90,false,stim,false,1,478,3,0,2,88960,WMM2,1232276,false,false,1444,image-keyboard-response,40
true,12,0,2,0,true,q,false,false,0.0-2.0-0.50-0.452-3.452,1,0,1,81,false,stim,false,2,1353,3,1,1,88960,WMM2,1235160,false,true,1447,image-keyboard-response,41
true,12,0,2,0,true,q,false,true,0.0-2.0-0.50-0.453-3.453,1,0,1,81,false,stim,false,2,767,3,1,1,88960,WMM2,1237463,false,false,1450,image-keyboard-response,42
true,13,2,2,2,true,d,false,true,0.0-2.0-0.50-0.454-3.454,1,1,0,68,true,stim,false,2,1218,3,1,0,88960,WMM2,1240211,false,false,1453,image-keyboard-response,1
true,13,2,2,2,true,d,false,true,0.0-2.0-0.50-0.455-3.455,1,1,0,68,false,stim,false,2,514,3,1,0,88960,WMM2,1242251,false,false,1456,image-keyboard-response,2
true,13,1,2,2,false,d,false,false,0.0-2.0-0.50-0.456-3.456,1,1,0,90,false,stim,true,1,858,3,0,2,88960,WMM2,1244636,false,false,1459,image-keyboard-response,3
true,13,0,2,0,true,q,false,true,0.0-2.0-0.50-0.457-3.457,1,1,0,81,false,stim,false,0,741,3,1,1,88960,WMM2,1246908,false,false,1462,image-keyboard-response,4
true,13,2,2,2,true,d,false,true,0.0-2.0-0.50-0.458-3.458,1,1,0,68,false,stim,false,2,667,3,1,0,88960,WMM2,1249103,false,false,1465,image-keyboard-response,5
true,13,0,2,0,true,q,false,true,0.0-2.0-0.51-0.459-3.459,1,1,0,81,false,stim,false,0,872,3,1,1,88960,WMM2,1251520,false,false,1468,image-keyboard-response,6
true,13,0,2,0,true,q,false,true,0.0-2.0-0.51-0.460-3.460,1,1,0,81,false,stim,false,0,712,3,1,1,88960,WMM2,1253760,false,false,1471,image-keyboard-response,7
true,13,2,2,2,true,d,false,false,0.0-2.0-0.51-0.461-3.461,1,1,0,68,false,stim,false,2,1035,3,1,0,88960,WMM2,1256331,false,true,1474,image-keyboard-response,8
true,13,0,2,0,true,q,false,true,0.0-2.0-0.51-0.462-3.462,1,1,0,81,false,stim,false,0,1033,3,1,1,88960,WMM2,1258898,false,false,1477,image-keyboard-response,9
true,13,2,2,2,true,d,false,false,0.0-2.0-0.51-0.463-3.463,1,1,0,68,false,stim,false,1,782,3,0,2,88960,WMM2,1261219,false,true,1480,image-keyboard-response,10
true,13,1,2,2,false,d,true,false,0.0-2.0-0.51-0.464-3.464,1,1,0,90,false,stim,false,2,756,3,1,0,88960,WMM2,1263504,false,false,1483,image-keyboard-response,11
true,13,0,2,2,false,d,true,false,0.0-2.0-0.51-0.465-3.465,1,1,0,81,false,stim,false,2,501,3,1,0,88960,WMM2,1265548,false,false,1486,image-keyboard-response,12
true,13,2,2,2,true,d,false,true,0.0-2.0-0.51-0.466-3.466,1,1,0,68,false,stim,false,1,1218,3,0,2,88960,WMM2,1268296,false,false,1489,image-keyboard-response,13
true,13,2,2,2,true,d,false,true,0.0-2.0-0.51-0.467-3.467,1,1,0,68,false,stim,false,1,423,3,0,2,88960,WMM2,1270250,false,false,1492,image-keyboard-response,14
true,13,0,2,0,true,q,false,true,0.0-2.0-0.52-0.468-3.468,1,1,0,81,false,stim,false,0,1564,3,1,1,88960,WMM2,1273343,false,false,1495,image-keyboard-response,15
true,13,2,2,2,true,d,false,true,0.0-2.0-0.52-0.469-3.469,1,1,0,68,false,stim,false,2,976,3,1,0,88960,WMM2,1275844,false,false,1498,image-keyboard-response,16
true,13,0,2,0,true,q,false,true,0.0-2.0-0.52-0.470-3.470,1,1,0,81,false,stim,false,0,836,3,1,1,88960,WMM2,1278236,false,false,1501,image-keyboard-response,17
true,13,2,2,2,true,d,false,true,0.0-2.0-0.52-0.471-3.471,1,1,0,68,false,stim,false,2,609,3,1,0,88960,WMM2,1280376,false,false,1504,image-keyboard-response,18
true,13,2,2,2,true,d,false,true,0.0-2.0-0.52-0.472-3.472,1,1,0,68,false,stim,false,2,548,3,1,0,88960,WMM2,1282457,false,false,1507,image-keyboard-response,19
true,13,2,2,2,true,d,false,true,0.0-2.0-0.52-0.473-3.473,1,1,0,68,false,stim,false,1,1277,3,0,2,88960,WMM2,1285275,false,false,1510,image-keyboard-response,20
true,13,2,2,2,true,d,false,true,0.0-2.0-0.52-0.474-3.474,1,1,0,68,false,stim,false,1,463,3,0,2,88960,WMM2,1287270,false,false,1513,image-keyboard-response,21
true,13,0,2,0,true,q,false,true,0.0-2.0-0.52-0.475-3.475,1,1,0,81,false,stim,false,0,1352,3,1,1,88960,WMM2,1290148,false,false,1516,image-keyboard-response,22
true,13,2,2,2,true,d,false,true,0.0-2.0-0.52-0.476-3.476,1,1,0,68,false,stim,false,1,830,3,0,2,88960,WMM2,1292516,false,false,1519,image-keyboard-response,23
true,13,2,2,2,true,d,false,true,0.0-2.0-0.53-0.477-3.477,1,1,0,68,false,stim,false,2,2242,3,1,0,88960,WMM2,1296300,false,false,1522,image-keyboard-response,24
true,13,2,2,2,true,d,false,true,0.0-2.0-0.53-0.478-3.478,1,1,0,68,false,stim,false,1,2068,3,0,2,88960,WMM2,1299896,false,false,1525,image-keyboard-response,25
true,13,0,2,0,true,q,false,true,0.0-2.0-0.53-0.479-3.479,1,1,0,81,false,stim,false,0,706,3,1,1,88960,WMM2,1302144,false,false,1528,image-keyboard-response,26
true,13,0,2,0,true,q,false,true,0.0-2.0-0.53-0.480-3.480,1,1,0,81,false,stim,false,0,1684,3,1,1,88960,WMM2,1305371,false,false,1531,image-keyboard-response,27
true,13,2,2,2,true,d,false,true,0.0-2.0-0.53-0.481-3.481,1,1,0,68,false,stim,false,1,1446,3,0,2,88960,WMM2,1308343,false,false,1534,image-keyboard-response,28
true,13,2,2,2,true,d,false,true,0.0-2.0-0.53-0.482-3.482,1,1,0,68,false,stim,false,1,2154,3,0,2,88960,WMM2,1312032,false,false,1537,image-keyboard-response,29
true,13,0,2,0,true,q,false,true,0.0-2.0-0.53-0.483-3.483,1,1,0,81,false,stim,false,0,1138,3,1,1,88960,WMM2,1314715,false,false,1540,image-keyboard-response,30
true,14,0,0,2,false,d,true,false,0.0-2.0-0.53-0.484-3.484,1,1,0,81,true,stim,false,2,938,3,1,0,88960,WMM2,1347136,false,false,1573,image-keyboard-response,1
true,14,1,0,2,false,d,true,false,0.0-2.0-0.53-0.485-3.485,1,1,0,90,false,stim,false,2,560,3,1,0,88960,WMM2,1349228,false,false,1576,image-keyboard-response,2
true,14,2,0,2,true,d,false,true,0.0-2.0-0.54-0.486-3.486,1,1,0,68,false,stim,false,2,421,3,1,0,88960,WMM2,1351187,false,false,1579,image-keyboard-response,3
true,14,2,0,2,true,d,false,true,0.0-2.0-0.54-0.487-3.487,1,1,0,68,false,stim,false,2,397,3,1,0,88960,WMM2,1353112,false,false,1582,image-keyboard-response,4
true,14,1,0,2,false,d,true,false,0.0-2.0-0.54-0.488-3.488,1,1,0,90,false,stim,false,2,967,3,0,2,88960,WMM2,1355596,false,false,1585,image-keyboard-response,5
true,14,0,0,2,false,d,true,false,0.0-2.0-0.54-0.489-3.489,1,1,0,81,false,stim,false,2,612,3,0,2,88960,WMM2,1357736,false,false,1588,image-keyboard-response,6
true,14,1,0,0,false,q,true,false,0.0-2.0-0.54-0.490-3.490,1,1,0,90,false,stim,false,0,754,3,1,1,88960,WMM2,1360031,false,false,1591,image-keyboard-response,7
true,14,2,0,2,true,d,false,false,0.0-2.0-0.54-0.491-3.491,1,1,0,68,false,stim,false,2,604,3,1,0,88960,WMM2,1362172,false,true,1594,image-keyboard-response,8
true,14,2,0,0,false,q,true,false,0.0-2.0-0.54-0.492-3.492,1,1,0,68,false,stim,false,0,1358,3,1,1,88960,WMM2,1365056,false,false,1597,image-keyboard-response,9
true,14,1,0,2,false,d,true,false,0.0-2.0-0.54-0.493-3.493,1,1,0,90,false,stim,false,2,1169,3,0,2,88960,WMM2,1367747,false,false,1600,image-keyboard-response,10
true,14,2,0,0,false,q,true,false,0.0-2.0-0.54-0.494-3.494,1,1,0,68,false,stim,false,0,1281,3,1,1,88960,WMM2,1370588,false,false,1603,image-keyboard-response,11
true,14,2,0,2,true,d,false,true,0.0-2.0-0.55-0.495-3.495,1,1,0,68,false,stim,false,2,483,3,1,0,88960,WMM2,1372591,false,false,1606,image-keyboard-response,12
true,14,2,0,2,true,d,false,true,0.0-2.0-0.55-0.496-3.496,1,1,0,68,false,stim,false,2,1223,3,0,2,88960,WMM2,1375351,false,false,1609,image-keyboard-response,13
true,14,2,0,2,true,d,false,true,0.0-2.0-0.55-0.497-3.497,1,1,0,68,false,stim,false,2,662,3,0,2,88960,WMM2,1377539,false,false,1612,image-keyboard-response,14
true,14,0,0,0,true,q,false,false,0.0-2.0-0.55-0.498-3.498,1,1,0,81,false,stim,false,0,1873,3,1,1,88960,WMM2,1380939,false,true,1615,image-keyboard-response,15
true,14,2,0,2,true,d,false,false,0.0-2.0-0.55-0.499-3.499,1,1,0,68,false,stim,false,2,490,3,1,0,88960,WMM2,1382968,false,true,1618,image-keyboard-response,16
true,14,2,0,2,true,d,false,true,0.0-2.0-0.55-0.500-3.500,1,1,0,68,false,stim,false,2,748,3,0,2,88960,WMM2,1385236,false,false,1621,image-keyboard-response,17
true,14,1,0,0,false,q,true,false,0.0-2.0-0.55-0.501-3.501,1,1,0,90,false,stim,false,0,1222,3,1,1,88960,WMM2,1387979,false,false,1624,image-keyboard-response,18
true,14,2,0,0,false,q,true,false,0.0-2.0-0.55-0.502-3.502,1,1,0,68,false,stim,false,0,616,3,1,1,88960,WMM2,1390124,false,false,1627,image-keyboard-response,19
true,14,2,0,2,true,d,false,true,0.0-2.0-0.55-0.503-3.503,1,1,0,68,false,stim,false,2,409,3,1,0,88960,WMM2,1392076,false,false,1630,image-keyboard-response,20
true,14,0,0,0,true,q,false,true,0.0-2.0-0.56-0.504-3.504,1,1,0,81,false,stim,false,0,1150,3,1,1,88960,WMM2,1394767,false,false,1633,image-keyboard-response,21
true,14,0,0,0,true,q,false,true,0.0-2.0-0.56-0.505-3.505,1,1,0,81,false,stim,false,0,704,3,1,1,88960,WMM2,1397011,false,false,1636,image-keyboard-response,22
true,14,2,0,2,true,d,false,true,0.0-2.0-0.56-0.506-3.506,1,1,0,68,false,stim,false,2,575,3,0,2,88960,WMM2,1399132,false,false,1639,image-keyboard-response,23
true,14,2,0,2,true,d,false,true,0.0-2.0-0.56-0.507-3.507,1,1,0,68,false,stim,false,2,869,3,1,2,88960,WMM2,1401539,false,false,1642,image-keyboard-response,24
true,14,2,0,2,true,d,false,true,0.0-2.0-0.56-0.508-3.508,1,1,0,68,false,stim,false,2,750,3,0,0,88960,WMM2,1403816,false,false,1645,image-keyboard-response,25
true,14,2,0,2,true,d,false,false,0.0-2.0-0.56-0.509-3.509,1,1,0,68,false,stim,false,2,370,3,0,0,88960,WMM2,1405727,false,true,1648,image-keyboard-response,26
true,14,0,0,0,true,q,false,true,0.0-2.0-0.56-0.510-3.510,1,1,0,81,false,stim,false,0,833,3,1,1,88960,WMM2,1408099,false,false,1651,image-keyboard-response,27
true,14,2,0,2,true,d,false,false,0.0-2.0-0.56-0.511-3.511,1,1,0,68,false,stim,false,2,1058,3,0,0,88960,WMM2,1410696,false,true,1654,image-keyboard-response,28
true,14,2,0,2,true,d,false,true,0.0-2.0-0.56-0.512-3.512,1,1,0,68,false,stim,false,2,643,3,1,2,88960,WMM2,1412871,false,false,1657,image-keyboard-response,29
true,14,2,0,2,true,d,false,true,0.0-2.0-0.57-0.513-3.513,1,1,0,68,false,stim,false,2,405,3,1,2,88960,WMM2,1414812,false,false,1660,image-keyboard-response,30
true,14,0,0,0,true,q,false,false,0.0-2.0-0.57-0.514-3.514,1,1,0,81,false,stim,false,0,890,3,1,1,88960,WMM2,1417248,false,true,1663,image-keyboard-response,31
true,14,1,0,0,false,q,true,false,0.0-2.0-0.57-0.515-3.515,1,1,0,90,false,stim,false,0,496,3,1,1,88960,WMM2,1419283,false,false,1666,image-keyboard-response,32
true,14,1,0,2,false,d,true,false,0.0-2.0-0.57-0.516-3.516,1,1,0,90,false,stim,false,2,1066,3,0,0,88960,WMM2,1421883,false,false,1669,image-keyboard-response,33
true,15,2,2,2,true,d,false,true,0.0-2.0-0.57-0.517-3.517,0,1,1,68,true,stim,false,2,536,3,1,2,88960,WMM2,1423964,false,false,1672,image-keyboard-response,1
true,15,0,2,1,false,z,true,false,0.0-2.0-0.57-0.518-3.518,0,1,1,81,false,stim,false,2,512,3,0,0,88960,WMM2,1426019,false,false,1675,image-keyboard-response,2
true,15,0,2,0,true,q,false,true,0.0-2.0-0.57-0.519-3.519,0,1,1,81,false,stim,false,0,1146,3,1,1,88960,WMM2,1428703,false,false,1678,image-keyboard-response,3
true,15,2,2,2,true,d,false,true,0.0-2.0-0.57-0.520-3.520,0,1,1,68,false,stim,false,2,1014,3,1,2,88960,WMM2,1431243,false,false,1681,image-keyboard-response,4
true,15,2,2,1,false,z,false,false,0.0-2.0-0.57-0.521-3.521,0,1,1,68,false,stim,true,2,541,3,0,0,88960,WMM2,1433319,false,false,1684,image-keyboard-response,5
true,15,0,2,0,true,q,false,true,0.0-2.0-0.58-0.522-3.522,0,1,1,81,false,stim,false,0,696,3,1,1,88960,WMM2,1435544,false,false,1687,image-keyboard-response,6
true,15,2,2,1,false,z,false,false,0.0-2.0-0.58-0.523-3.523,0,1,1,68,false,stim,true,2,737,3,0,0,88960,WMM2,1437816,false,false,1690,image-keyboard-response,7
true,15,1,2,1,true,z,false,true,0.0-2.0-0.58-0.524-3.524,0,1,1,90,false,stim,false,2,580,3,0,0,88960,WMM2,1439928,false,false,1693,image-keyboard-response,8
true,15,0,2,0,true,q,false,true,0.0-2.0-0.58-0.525-3.525,0,1,1,81,false,stim,false,0,717,3,1,1,88960,WMM2,1442183,false,false,1696,image-keyboard-response,9
true,15,0,2,0,true,q,false,true,0.0-2.0-0.58-0.526-3.526,0,1,1,81,false,stim,false,0,473,3,1,1,88960,WMM2,1444190,false,false,1699,image-keyboard-response,10
true,15,2,2,2,true,d,false,true,0.0-2.0-0.58-0.527-3.527,0,1,1,68,false,stim,false,2,1317,3,1,2,88960,WMM2,1447064,false,false,1702,image-keyboard-response,11
true,15,2,2,2,true,d,false,true,0.0-2.0-0.58-0.528-3.528,0,1,1,68,false,stim,false,2,433,3,1,2,88960,WMM2,1449030,false,false,1705,image-keyboard-response,12
true,15,0,2,1,false,z,true,false,0.0-2.0-0.58-0.529-3.529,0,1,1,81,false,stim,false,2,1730,3,0,0,88960,WMM2,1452277,false,false,1708,image-keyboard-response,13
true,15,2,2,2,true,d,false,true,0.0-2.0-0.58-0.530-3.530,0,1,1,68,false,stim,false,2,648,3,1,2,88960,WMM2,1454456,false,false,1711,image-keyboard-response,14
true,15,1,2,1,true,z,false,false,0.0-2.0-0.59-0.531-3.531,0,1,1,90,false,stim,false,2,380,3,0,0,88960,WMM2,1456367,false,true,1714,image-keyboard-response,15
true,15,2,2,2,true,d,false,true,0.0-2.0-0.59-0.532-3.532,0,1,1,68,false,stim,false,2,624,3,1,2,88960,WMM2,1458531,false,false,1717,image-keyboard-response,16
true,15,1,2,1,true,z,false,true,0.0-2.0-0.59-0.533-3.533,0,1,1,90,false,stim,false,2,754,3,0,0,88960,WMM2,1460831,false,false,1720,image-keyboard-response,17
true,15,2,2,2,true,d,false,true,0.0-2.0-0.59-0.534-3.534,0,1,1,68,false,stim,false,2,1029,3,1,2,88960,WMM2,1463396,false,false,1723,image-keyboard-response,18
true,15,0,2,0,true,q,false,true,0.0-2.0-0.59-0.535-3.535,0,1,1,81,false,stim,false,0,1015,3,1,1,88960,WMM2,1465932,false,false,1726,image-keyboard-response,19
true,15,0,2,0,true,q,false,true,0.0-2.0-0.59-0.536-3.536,0,1,1,81,false,stim,false,0,731,3,1,1,88960,WMM2,1468208,false,false,1729,image-keyboard-response,20
true,15,0,2,0,true,q,false,true,0.0-2.0-0.59-0.537-3.537,0,1,1,81,false,stim,false,0,1435,3,1,1,88960,WMM2,1471183,false,false,1732,image-keyboard-response,21
true,15,1,2,1,true,z,false,true,0.0-2.0-0.59-0.538-3.538,0,1,1,90,false,stim,false,2,1093,3,0,0,88960,WMM2,1473810,false,false,1735,image-keyboard-response,22
true,15,2,2,2,true,d,false,true,0.0-2.0-0.59-0.539-3.539,0,1,1,68,false,stim,false,2,485,3,1,2,88960,WMM2,1475831,false,false,1738,image-keyboard-response,23
true,15,0,2,0,true,q,false,false,0.0-2.0-0.60-0.540-3.540,0,1,1,81,false,stim,false,0,729,3,1,1,88960,WMM2,1478087,false,true,1741,image-keyboard-response,24
true,15,2,2,2,true,d,false,false,0.0-2.0-0.60-0.541-3.541,0,1,1,68,false,stim,false,2,665,3,1,2,88960,WMM2,1480288,false,true,1744,image-keyboard-response,25
true,15,1,2,1,true,z,false,true,0.0-2.0-0.60-0.542-3.542,0,1,1,90,false,stim,false,2,1065,3,0,0,88960,WMM2,1482883,false,false,1747,image-keyboard-response,26
true,15,0,2,0,true,q,false,false,0.0-2.0-0.60-0.543-3.543,0,1,1,81,false,stim,false,0,690,3,1,1,88960,WMM2,1485107,false,true,1750,image-keyboard-response,27
true,15,0,2,0,true,q,false,true,0.0-2.0-0.60-0.544-3.544,0,1,1,81,false,stim,false,0,590,3,1,1,88960,WMM2,1487236,false,false,1753,image-keyboard-response,28
true,15,2,2,2,true,d,false,true,0.0-2.0-0.60-0.545-3.545,0,1,1,68,false,stim,false,2,838,3,1,2,88960,WMM2,1489616,false,false,1756,image-keyboard-response,29
true,15,1,2,1,true,z,false,true,0.0-2.0-0.60-0.546-3.546,0,1,1,90,false,stim,false,2,972,3,0,0,88960,WMM2,1492116,false,false,1759,image-keyboard-response,30
true,16,2,3,2,true,d,false,true,0.0-2.0-0.60-0.547-3.547,0,1,1,68,true,stim,false,2,1506,3,1,2,88960,WMM2,1495152,false,false,1762,image-keyboard-response,1
true,16,1,3,0,false,q,false,false,0.0-2.0-0.60-0.548-3.548,0,1,1,90,false,stim,true,1,920,3,0,0,88960,WMM2,1497608,false,false,1765,image-keyboard-response,2
true,16,0,3,0,true,q,false,false,0.0-2.0-0.61-0.549-3.549,0,1,1,81,false,stim,false,0,713,3,1,1,88960,WMM2,1499852,false,true,1768,image-keyboard-response,3
true,16,1,3,0,false,q,false,false,0.0-2.0-0.61-0.550-3.550,0,1,1,90,false,stim,true,1,853,3,0,0,88960,WMM2,1502251,false,false,1771,image-keyboard-response,4
true,16,0,3,0,true,q,false,false,0.0-2.0-0.61-0.551-3.551,0,1,1,81,false,stim,false,0,728,3,1,1,88960,WMM2,1504516,false,true,1774,image-keyboard-response,5
true,16,1,3,0,false,q,false,false,0.0-2.0-0.61-0.552-3.552,0,1,1,90,false,stim,true,1,860,3,0,0,88960,WMM2,1506917,false,false,1777,image-keyboard-response,6
true,16,0,3,0,true,q,false,true,0.0-2.0-0.61-0.553-3.553,0,1,1,81,false,stim,false,0,663,3,1,1,88960,WMM2,1509110,false,false,1780,image-keyboard-response,7
true,16,2,3,2,true,d,false,true,0.0-2.0-0.61-0.554-3.554,0,1,1,68,false,stim,false,2,795,3,1,2,88960,WMM2,1511432,false,false,1783,image-keyboard-response,8
true,16,2,3,2,true,d,false,true,0.0-2.0-0.61-0.555-3.555,0,1,1,68,false,stim,false,2,625,3,1,2,88960,WMM2,1513603,false,false,1786,image-keyboard-response,9
true,16,2,3,2,true,d,false,true,0.0-2.0-0.61-0.556-3.556,0,1,1,68,false,stim,false,2,481,3,1,2,88960,WMM2,1515619,false,false,1789,image-keyboard-response,10
true,16,2,3,0,false,q,true,false,0.0-2.0-0.61-0.557-3.557,0,1,1,68,false,stim,false,1,485,3,0,0,88960,WMM2,1517640,false,false,1792,image-keyboard-response,11
true,16,2,3,2,true,d,false,true,0.0-2.0-0.62-0.558-3.558,0,1,1,68,false,stim,false,2,2316,3,1,2,88960,WMM2,1521483,false,false,1795,image-keyboard-response,12
true,16,2,3,2,true,d,false,true,0.0-2.0-0.62-0.559-3.559,0,1,1,68,false,stim,false,2,666,3,1,2,88960,WMM2,1523683,false,false,1798,image-keyboard-response,13
true,16,0,3,0,true,q,false,true,0.0-2.0-0.62-0.560-3.560,0,1,1,81,false,stim,false,0,1837,3,1,1,88960,WMM2,1527096,false,false,1801,image-keyboard-response,14
true,16,0,3,0,true,q,false,true,0.0-2.0-0.62-0.561-3.561,0,1,1,81,false,stim,false,0,1082,3,1,1,88960,WMM2,1529719,false,false,1804,image-keyboard-response,15
true,16,2,3,2,true,d,false,true,0.0-2.0-0.62-0.562-3.562,0,1,1,68,false,stim,false,2,1624,3,1,2,88960,WMM2,1532891,false,false,1807,image-keyboard-response,16
true,16,0,3,0,true,q,false,true,0.0-2.0-0.62-0.563-3.563,0,1,1,81,false,stim,false,0,1019,3,1,1,88960,WMM2,1535456,false,false,1810,image-keyboard-response,17
true,16,1,3,0,false,q,false,false,0.0-2.0-0.62-0.564-3.564,0,1,1,90,false,stim,true,1,1144,3,0,0,88960,WMM2,1538131,false,false,1813,image-keyboard-response,18
true,16,0,3,0,true,q,false,true,0.0-2.0-0.62-0.565-3.565,0,1,1,81,false,stim,false,1,964,3,0,0,88960,WMM2,1540652,false,false,1816,image-keyboard-response,19
true,16,0,3,0,true,q,false,true,0.0-2.0-0.62-0.566-3.566,0,1,1,81,false,stim,false,1,429,3,0,0,88960,WMM2,1542616,false,false,1819,image-keyboard-response,20
true,16,0,3,0,true,q,false,true,0.0-2.0-0.63-0.567-3.567,0,1,1,81,false,stim,false,1,754,3,1,0,88960,WMM2,1544912,false,false,1822,image-keyboard-response,21
true,16,2,3,2,true,d,false,true,0.0-2.0-0.63-0.568-3.568,0,1,1,68,false,stim,false,2,991,3,1,2,88960,WMM2,1547438,false,false,1825,image-keyboard-response,22
true,16,0,3,0,true,q,false,false,0.0-2.0-0.63-0.569-3.569,0,1,1,81,false,stim,false,0,1124,3,0,1,88960,WMM2,1550092,false,true,1828,image-keyboard-response,23
true,16,0,3,2,false,d,true,false,0.0-2.0-0.63-0.570-3.570,0,1,1,81,false,stim,false,2,1510,3,1,2,88960,WMM2,1553145,false,false,1831,image-keyboard-response,24
true,16,0,3,0,true,q,false,true,0.0-2.0-0.63-0.571-3.571,0,1,1,81,false,stim,false,1,512,3,1,0,88960,WMM2,1555199,false,false,1834,image-keyboard-response,25
true,16,0,3,0,true,q,false,true,0.0-2.0-0.63-0.572-3.572,0,1,1,81,false,stim,false,0,2632,3,0,1,88960,WMM2,1559368,false,false,1837,image-keyboard-response,26
true,16,0,3,0,true,q,false,true,0.0-2.0-0.63-0.573-3.573,0,1,1,81,false,stim,false,0,483,3,0,1,88960,WMM2,1561391,false,false,1840,image-keyboard-response,27
true,16,2,3,0,false,q,true,true,0.0-2.0-0.63-0.574-3.574,0,1,1,68,false,stim,false,1,1830,3,1,0,88960,WMM2,1564768,false,true,1843,image-keyboard-response,28
true,16,2,3,2,true,d,false,false,0.0-2.0-0.63-0.575-3.575,0,1,1,68,false,stim,false,2,918,3,1,2,88960,WMM2,1567224,false,true,1846,image-keyboard-response,29
true,16,0,3,0,true,q,false,true,0.0-2.0-0.64-0.576-3.576,0,1,1,81,false,stim,false,0,1120,3,0,1,88960,WMM2,1569888,false,false,1849,image-keyboard-response,30
true,17,0,3,1,false,z,false,false,0.0-2.0-0.64-0.577-3.577,1,0,1,81,true,stim,true,0,745,3,0,1,88960,WMM2,1572171,false,false,1852,image-keyboard-response,1
true,17,2,3,0,false,q,true,false,0.0-2.0-0.64-0.578-3.578,1,0,1,68,false,stim,false,0,850,3,1,0,88960,WMM2,1574560,false,false,1855,image-keyboard-response,2
true,17,0,3,1,false,z,false,false,0.0-2.0-0.64-0.579-3.579,1,0,1,81,false,stim,true,0,611,3,0,1,88960,WMM2,1576699,false,false,1858,image-keyboard-response,3
true,17,2,3,2,true,d,false,true,0.0-2.0-0.64-0.580-3.580,1,0,1,68,false,stim,false,2,1182,3,1,2,88960,WMM2,1579427,false,false,1861,image-keyboard-response,4
true,17,2,3,2,true,d,false,false,0.0-2.0-0.64-0.581-3.581,1,0,1,68,false,stim,false,2,467,3,1,2,88960,WMM2,1581424,false,true,1864,image-keyboard-response,5
true,17,0,3,0,true,q,false,false,0.0-2.0-0.64-0.582-3.582,1,0,1,81,false,stim,false,0,1852,3,1,0,88960,WMM2,1584818,false,true,1867,image-keyboard-response,6
true,17,2,3,2,true,d,false,true,0.0-2.0-0.64-0.583-3.583,1,0,1,68,false,stim,false,2,492,3,1,2,88960,WMM2,1586907,false,false,1870,image-keyboard-response,7
true,17,2,3,0,false,q,true,false,0.0-2.0-0.64-0.584-3.584,1,0,1,68,false,stim,false,0,386,3,1,0,88960,WMM2,1588819,false,false,1873,image-keyboard-response,8
true,17,2,3,2,true,d,false,true,0.0-2.0-0.65-0.585-3.585,1,0,1,68,false,stim,false,2,452,3,1,2,88960,WMM2,1590809,false,false,1876,image-keyboard-response,9
true,17,2,3,2,true,d,false,true,0.0-2.0-0.65-0.586-3.586,1,0,1,68,false,stim,false,2,556,3,1,2,88960,WMM2,1592903,false,false,1879,image-keyboard-response,10
true,17,1,3,0,false,q,true,true,0.0-2.0-0.65-0.587-3.587,1,0,1,90,false,stim,false,0,446,3,1,0,88960,WMM2,1594883,false,true,1882,image-keyboard-response,11
true,17,0,3,1,false,z,false,false,0.0-2.0-0.65-0.588-3.588,1,0,1,81,false,stim,true,0,898,3,0,1,88960,WMM2,1597315,false,false,1885,image-keyboard-response,12
true,17,1,3,1,true,z,false,false,0.0-2.0-0.65-0.589-3.589,1,0,1,90,false,stim,false,0,728,3,0,1,88960,WMM2,1599572,false,true,1888,image-keyboard-response,13
true,17,2,3,2,true,d,false,true,0.0-2.0-0.65-0.590-3.590,1,0,1,68,false,stim,false,2,589,3,1,2,88960,WMM2,1601687,false,false,1891,image-keyboard-response,14
true,17,1,3,0,false,q,true,false,0.0-2.0-0.65-0.591-3.591,1,0,1,90,false,stim,false,0,434,3,1,0,88960,WMM2,1603651,false,false,1894,image-keyboard-response,15
true,17,1,3,0,false,q,true,false,0.0-2.0-0.65-0.592-3.592,1,0,1,90,false,stim,false,0,671,3,1,0,88960,WMM2,1605859,false,false,1897,image-keyboard-response,16
true,17,2,3,1,false,z,true,true,0.0-2.0-0.65-0.593-3.593,1,0,1,68,false,stim,false,0,1170,3,0,1,88960,WMM2,1608568,false,true,1900,image-keyboard-response,17
true,17,1,3,0,false,q,true,false,0.0-2.0-0.66-0.594-3.594,1,0,1,90,false,stim,false,0,1203,3,1,0,88960,WMM2,1611331,false,false,1903,image-keyboard-response,18
true,17,2,3,2,true,d,false,true,0.0-2.0-0.66-0.595-3.595,1,0,1,68,false,stim,false,2,612,3,1,2,88960,WMM2,1613471,false,false,1906,image-keyboard-response,19
true,17,2,3,2,true,d,false,true,0.0-2.0-0.66-0.596-3.596,1,0,1,68,false,stim,false,2,712,3,1,2,88960,WMM2,1615719,false,false,1909,image-keyboard-response,20
true,17,2,3,1,false,z,true,false,0.0-2.0-0.66-0.597-3.597,1,0,1,68,false,stim,false,0,1456,3,0,1,88960,WMM2,1618711,false,false,1912,image-keyboard-response,21
true,17,2,3,1,false,z,true,false,0.0-2.0-0.66-0.598-3.598,1,0,1,68,false,stim,false,0,421,3,0,1,88960,WMM2,1620666,false,false,1915,image-keyboard-response,22
true,17,2,3,1,false,z,true,true,0.0-2.0-0.66-0.599-3.599,1,0,1,68,false,stim,false,0,757,3,0,1,88960,WMM2,1622964,false,true,1918,image-keyboard-response,23
true,17,0,3,2,false,d,true,false,0.0-2.0-0.66-0.600-3.600,1,0,1,81,false,stim,false,2,1442,3,1,2,88960,WMM2,1625959,false,false,1921,image-keyboard-response,24
true,17,1,3,0,false,q,true,false,0.0-2.0-0.66-0.601-3.601,1,0,1,90,false,stim,false,0,1895,3,1,0,88960,WMM2,1629404,false,false,1924,image-keyboard-response,25
true,17,0,3,0,true,q,false,true,0.0-2.0-0.66-0.602-3.602,1,0,1,81,false,stim,false,0,1218,3,1,0,88960,WMM2,1632176,false,false,1927,image-keyboard-response,26
true,17,0,3,0,true,q,false,true,0.0-2.0-0.67-0.603-3.603,1,0,1,81,false,stim,false,0,642,3,1,0,88960,WMM2,1634359,false,false,1930,image-keyboard-response,27
true,17,0,3,0,true,q,false,true,0.0-2.0-0.67-0.604-3.604,1,0,1,81,false,stim,false,0,416,3,1,0,88960,WMM2,1636312,false,false,1933,image-keyboard-response,28
true,17,2,3,1,false,z,true,false,0.0-2.0-0.67-0.605-3.605,1,0,1,68,false,stim,false,0,1620,3,0,1,88960,WMM2,1639489,false,false,1936,image-keyboard-response,29
true,17,0,3,0,true,q,false,true,0.0-2.0-0.67-0.606-3.606,1,0,1,81,false,stim,false,0,771,3,1,0,88960,WMM2,1641799,false,false,1939,image-keyboard-response,30
true,17,2,3,2,true,d,false,true,0.0-2.0-0.67-0.607-3.607,1,0,1,68,false,stim,false,2,892,3,1,2,88960,WMM2,1644220,false,false,1942,image-keyboard-response,31
true,17,2,3,2,true,d,false,false,0.0-2.0-0.67-0.608-3.608,1,0,1,68,false,stim,false,2,558,3,1,2,88960,WMM2,1646316,false,true,1945,image-keyboard-response,32
true,17,0,3,1,false,z,false,false,0.0-2.0-0.67-0.609-3.609,1,0,1,81,false,stim,true,0,1260,3,0,1,88960,WMM2,1649096,false,false,1948,image-keyboard-response,33
true,17,0,3,1,false,z,false,false,0.0-2.0-0.67-0.610-3.610,1,0,1,81,false,stim,true,0,1129,3,0,1,88960,WMM2,1651775,false,false,1951,image-keyboard-response,34
true,17,2,3,2,true,d,false,false,0.0-2.0-0.67-0.611-3.611,1,0,1,68,false,stim,false,2,1205,3,1,2,88960,WMM2,1654523,false,true,1954,image-keyboard-response,35
true,17,1,3,1,true,z,false,true,0.0-2.0-0.68-0.612-3.612,1,0,1,90,false,stim,false,0,819,3,0,1,88960,WMM2,1656883,false,false,1957,image-keyboard-response,36
true,17,0,3,0,true,q,false,true,0.0-2.0-0.68-0.613-3.613,1,0,1,81,false,stim,false,0,996,3,1,0,88960,WMM2,1659434,false,false,1960,image-keyboard-response,37
true,17,1,3,2,false,d,true,false,0.0-2.0-0.68-0.614-3.614,1,0,1,90,false,stim,false,2,1564,3,1,2,88960,WMM2,1662532,false,false,1963,image-keyboard-response,38
true,17,1,3,1,true,z,false,true,0.0-2.0-0.68-0.615-3.615,1,0,1,90,false,stim,false,0,1027,3,0,1,88960,WMM2,1665083,false,false,1966,image-keyboard-response,39
true,17,0,3,0,true,q,false,true,0.0-2.0-0.68-0.616-3.616,1,0,1,81,false,stim,false,0,990,3,1,0,88960,WMM2,1667627,false,false,1969,image-keyboard-response,40
true,17,1,3,1,true,z,false,true,0.0-2.0-0.68-0.617-3.617,1,0,1,90,false,stim,false,0,824,3,0,1,88960,WMM2,1669991,false,false,1972,image-keyboard-response,41
true,17,0,3,0,true,q,false,true,0.0-2.0-0.68-0.618-3.618,1,0,1,81,false,stim,false,0,1509,3,1,0,88960,WMM2,1673047,false,false,1975,image-keyboard-response,42
true,17,2,3,2,true,d,false,true,0.0-2.0-0.68-0.619-3.619,1,0,1,68,false,stim,false,2,2497,3,1,2,88960,WMM2,1677096,false,false,1978,image-keyboard-response,43
true,17,2,3,2,true,d,false,false,0.0-2.0-0.68-0.620-3.620,1,0,1,68,false,stim,false,2,508,3,1,2,88960,WMM2,1679147,false,true,1981,image-keyboard-response,44
true,17,1,3,1,true,z,false,true,0.0-2.0-0.69-0.621-3.621,1,0,1,90,false,stim,false,0,1399,3,1,1,88960,WMM2,1682096,false,false,1984,image-keyboard-response,45
true,17,0,3,0,true,q,false,true,0.0-2.0-0.69-0.622-3.622,1,0,1,81,false,stim,false,0,980,3,0,0,88960,WMM2,1684617,false,false,1987,image-keyboard-response,46
true,17,1,3,1,true,z,false,true,0.0-2.0-0.69-0.623-3.623,1,0,1,90,false,stim,false,0,583,3,1,1,88960,WMM2,1686732,false,false,1990,image-keyboard-response,47
true,17,1,3,1,true,z,false,false,0.0-2.0-0.69-0.624-3.624,1,0,1,90,false,stim,false,0,804,3,1,1,88960,WMM2,1689071,false,true,1993,image-keyboard-response,48
true,17,0,3,0,true,q,false,true,0.0-2.0-0.69-0.625-3.625,1,0,1,81,false,stim,false,0,1081,3,0,0,88960,WMM2,1691699,false,false,1996,image-keyboard-response,49
true,17,2,3,2,true,d,false,true,0.0-2.0-0.69-0.626-3.626,1,0,1,68,false,stim,false,2,2089,3,1,2,88960,WMM2,1695316,false,false,1999,image-keyboard-response,50
true,17,0,3,0,true,q,false,true,0.0-2.0-0.69-0.627-3.627,1,0,1,81,false,stim,false,0,1080,3,0,0,88960,WMM2,1697959,false,false,2002,image-keyboard-response,51
true,17,2,3,2,true,d,false,false,0.0-2.0-0.69-0.628-3.628,1,0,1,68,false,stim,false,2,1049,3,1,2,88960,WMM2,1700536,false,true,2005,image-keyboard-response,52
true,17,2,3,2,true,d,false,true,0.0-2.0-0.69-0.629-3.629,1,0,1,68,false,stim,false,2,2061,3,1,2,88960,WMM2,1704129,false,false,2008,image-keyboard-response,53
true,17,2,3,2,true,d,false,true,0.0-2.0-0.70-0.630-3.630,1,0,1,68,false,stim,false,2,875,3,1,2,88960,WMM2,1706543,false,false,2011,image-keyboard-response,54
true,18,0,4,0,true,q,false,true,0.0-2.0-0.70-0.631-3.631,0,1,1,81,true,stim,false,0,1849,3,0,0,88960,WMM2,1709927,false,false,2014,image-keyboard-response,1
true,18,1,4,1,true,z,false,true,0.0-2.0-0.70-0.632-3.632,0,1,1,90,false,stim,false,1,1200,3,1,1,88960,WMM2,1712667,false,false,2017,image-keyboard-response,2
true,18,2,4,2,true,d,false,true,0.0-2.0-0.70-0.633-3.633,0,1,1,68,false,stim,false,2,1061,3,1,2,88960,WMM2,1715259,false,false,2020,image-keyboard-response,3
true,18,1,4,1,true,z,false,true,0.0-2.0-0.70-0.634-3.634,0,1,1,90,false,stim,false,1,1579,3,1,1,88960,WMM2,1718367,false,false,2023,image-keyboard-response,4
true,18,1,4,1,true,z,false,true,0.0-2.0-0.70-0.635-3.635,0,1,1,90,false,stim,false,1,962,3,1,1,88960,WMM2,1720859,false,false,2026,image-keyboard-response,5
true,18,0,4,0,true,q,false,true,0.0-2.0-0.70-0.636-3.636,0,1,1,81,false,stim,false,0,968,3,0,0,88960,WMM2,1723372,false,false,2029,image-keyboard-response,6
true,18,0,4,0,true,q,false,true,0.0-2.0-0.70-0.637-3.637,0,1,1,81,false,stim,false,0,907,3,0,0,88960,WMM2,1725823,false,false,2032,image-keyboard-response,7
