answered,blockNum,choice,condition,corResp,correct,correct_response,explo,fb,internal_node_id,isStable_1,isStable_2,isStable_3,key_press,newBlock,part,persev,persevResp,rt,sessNum,stableAS,stimulus,subject,task,time_elapsed,training,trap,trial_index,trial_type,trialsInBlock
true,1,0,0,0,true,q,false,true,0.0-2.0-0.0-0.0-3.0,0,0,0,81,true,stim,false,-1,1140.8200000005309,0,0,0,89874,WMM1,215659,false,false,79,image-keyboard-response,1
true,1,1,0,1,true,z,false,true,0.0-2.0-0.0-0.1-3.1,0,0,0,90,false,stim,false,-1,536.4050000007555,0,0,2,89874,WMM1,217705,false,false,82,image-keyboard-response,2
true,1,2,0,1,false,z,true,false,0.0-2.0-0.0-0.2-3.2,0,0,0,68,false,stim,false,-1,536.3649999999325,0,0,1,89874,WMM1,219755,false,false,85,image-keyboard-response,3
true,1,1,0,1,true,z,false,true,0.0-2.0-0.0-0.3-3.3,0,0,0,90,false,stim,false,-1,1095.494999999588,0,0,1,89874,WMM1,222363,false,false,88,image-keyboard-response,4
true,1,0,0,0,true,q,false,true,0.0-2.0-0.0-0.4-3.4,0,0,0,81,false,stim,false,-1,543.670000000915,0,0,0,89874,WMM1,224418,false,false,91,image-keyboard-response,5
true,1,0,0,0,true,q,false,true,0.0-2.0-0.0-0.5-3.5,0,0,0,81,false,stim,false,-1,706.2700000005716,0,0,0,89874,WMM1,226634,false,false,94,image-keyboard-response,6
true,1,1,0,1,true,z,false,true,0.0-2.0-0.0-0.6-3.6,0,0,0,90,false,stim,false,-1,676.2450000005774,0,0,2,89874,WMM1,228818,false,false,97,image-keyboard-response,7
true,1,1,0,1,true,z,false,false,0.0-2.0-0.0-0.7-3.7,0,0,0,90,false,stim,false,-1,475.26499999911175,0,0,2,89874,WMM1,230802,false,true,100,image-keyboard-response,8
true,1,1,0,1,true,z,false,true,0.0-2.0-0.0-0.8-3.8,0,0,0,90,false,stim,false,-1,931.7199999986915,0,0,1,89874,WMM1,233250,false,false,103,image-keyboard-response,9
true,1,2,0,1,false,z,true,false,0.0-2.0-0.1-0.9-3.9,0,0,0,68,false,stim,false,-1,905.5399999997462,0,0,2,89874,WMM1,235669,false,false,106,image-keyboard-response,10
true,1,0,0,0,true,q,false,true,0.0-2.0-0.1-0.10-3.10,0,0,0,81,false,stim,false,-1,745.6199999996752,0,0,0,89874,WMM1,237925,false,false,109,image-keyboard-response,11
true,1,0,0,1,false,z,true,false,0.0-2.0-0.1-0.11-3.11,0,0,0,81,false,stim,false,-1,751.3099999996484,0,0,2,89874,WMM1,240187,false,false,112,image-keyboard-response,12
true,1,1,0,1,true,z,false,false,0.0-2.0-0.1-0.12-3.12,0,0,0,90,false,stim,false,-1,883.0450000004785,0,0,1,89874,WMM1,242580,false,true,115,image-keyboard-response,13
true,1,0,0,1,false,z,true,false,0.0-2.0-0.1-0.13-3.13,0,0,0,81,false,stim,false,-1,653.1200000008685,0,0,1,89874,WMM1,244745,false,false,118,image-keyboard-response,14
true,1,2,0,1,false,z,true,false,0.0-2.0-0.1-0.14-3.14,0,0,0,68,false,stim,false,-1,473.6050000010291,0,0,1,89874,WMM1,246730,false,false,121,image-keyboard-response,15
true,1,1,0,1,true,z,false,true,0.0-2.0-0.1-0.15-3.15,0,0,0,90,false,stim,false,-1,771.5650000009045,0,0,2,89874,WMM1,249017,false,false,124,image-keyboard-response,16
true,1,0,0,0,true,q,false,true,0.0-2.0-0.1-0.16-3.16,0,0,0,81,false,stim,false,-1,619.1249999992433,0,0,0,89874,WMM1,251145,false,false,127,image-keyboard-response,17
true,1,0,0,0,true,q,false,true,0.0-2.0-0.1-0.17-3.17,0,0,0,81,false,stim,false,-1,797.9149999991641,0,0,0,89874,WMM1,253457,false,false,130,image-keyboard-response,18
true,1,0,0,0,true,q,false,true,0.0-2.0-0.2-0.18-3.18,0,0,0,81,false,stim,false,-1,576.9149999996589,0,0,0,89874,WMM1,255544,false,false,133,image-keyboard-response,19
true,1,1,0,1,true,z,false,true,0.0-2.0-0.2-0.19-3.19,0,0,0,90,false,stim,false,-1,456.65499999996973,0,0,2,89874,WMM1,257513,false,false,136,image-keyboard-response,20
true,1,0,0,0,true,q,false,true,0.0-2.0-0.2-0.20-3.20,0,0,0,81,false,stim,false,-1,566.1450000006589,0,0,0,89874,WMM1,259591,false,false,139,image-keyboard-response,21
true,1,2,0,1,false,z,true,false,0.0-2.0-0.2-0.21-3.21,0,0,0,68,false,stim,false,-1,879.4500000003609,0,0,1,89874,WMM1,261984,false,false,142,image-keyboard-response,22
true,1,0,0,0,true,q,false,true,0.0-2.0-0.2-0.22-3.22,0,0,0,81,false,stim,false,-1,1227.1299999993062,0,0,0,89874,WMM1,264726,false,false,145,image-keyboard-response,23
true,1,1,0,1,true,z,false,true,0.0-2.0-0.2-0.23-3.23,0,0,0,90,false,stim,false,-1,549.8050000005751,0,0,1,89874,WMM1,266784,false,false,148,image-keyboard-response,24
true,1,1,0,1,true,z,false,true,0.0-2.0-0.2-0.24-3.24,0,0,0,90,false,stim,false,-1,909.9450000012293,0,0,2,89874,WMM1,269208,false,false,151,image-keyboard-response,25
true,1,1,0,1,true,z,false,true,0.0-2.0-0.2-0.25-3.25,0,0,0,90,false,stim,false,-1,517.0199999993201,0,0,2,89874,WMM1,271240,false,false,154,image-keyboard-response,26
true,1,1,0,1,true,z,false,false,0.0-2.0-0.2-0.26-3.26,0,0,0,90,false,stim,false,-1,894.0650000004098,0,0,1,89874,WMM1,273648,false,true,157,image-keyboard-response,27
true,1,0,0,0,true,q,false,true,0.0-2.0-0.3-0.27-3.27,0,0,0,81,false,stim,false,-1,706.8499999986961,0,0,0,89874,WMM1,275867,false,false,160,image-keyboard-response,28
true,1,1,0,1,true,z,false,true,0.0-2.0-0.3-0.28-3.28,0,0,0,90,false,stim,false,-1,586.9650000004331,0,0,2,89874,WMM1,277968,false,false,163,image-keyboard-response,29
true,1,0,0,0,true,q,false,true,0.0-2.0-0.3-0.29-3.29,0,0,0,81,false,stim,false,-1,606.0749999996624,0,0,0,89874,WMM1,280088,false,false,166,image-keyboard-response,30
true,1,0,0,1,false,z,true,false,0.0-2.0-0.3-0.30-3.30,0,0,0,81,false,stim,false,-1,549.6999999996042,0,1,1,89874,WMM1,282152,false,false,169,image-keyboard-response,31
true,1,0,0,0,true,q,false,true,0.0-2.0-0.3-0.31-3.31,0,0,0,81,false,stim,false,-1,696.1600000013132,0,0,0,89874,WMM1,284359,false,false,172,image-keyboard-response,32
true,1,1,0,1,true,z,false,true,0.0-2.0-0.3-0.32-3.32,0,0,0,90,false,stim,false,-1,917.5149999991409,0,1,1,89874,WMM1,286791,false,false,175,image-keyboard-response,33
true,1,1,0,1,true,z,false,true,0.0-2.0-0.3-0.33-3.33,0,0,0,90,false,stim,false,-1,442.2599999997765,0,1,1,89874,WMM1,288743,false,false,178,image-keyboard-response,34
true,1,1,0,1,true,z,false,true,0.0-2.0-0.3-0.34-3.34,0,0,0,90,false,stim,false,-1,533.0549999998766,0,0,2,89874,WMM1,290792,false,false,181,image-keyboard-response,35
true,1,1,0,1,true,z,false,true,0.0-2.0-0.3-0.35-3.35,0,0,0,90,false,stim,false,-1,741.1699999993434,0,0,2,89874,WMM1,293047,false,false,184,image-keyboard-response,36
true,1,1,0,1,true,z,false,true,0.0-2.0-0.4-0.36-3.36,0,0,0,90,false,stim,false,-1,646.1400000007125,0,1,1,89874,WMM1,295207,false,false,187,image-keyboard-response,37
true,2,1,3,1,true,z,false,true,0.0-2.0-0.4-0.37-3.37,0,1,0,90,true,stim,false,1,447.45999999938067,0,1,1,89874,WMM1,297167,false,false,190,image-keyboard-response,1
true,2,1,3,0,false,q,false,false,0.0-2.0-0.4-0.38-3.38,0,1,0,90,false,stim,true,1,903.5500000009197,0,0,2,89874,WMM1,299576,false,false,193,image-keyboard-response,2
true,2,1,3,1,true,z,false,true,0.0-2.0-0.4-0.39-3.39,0,1,0,90,false,stim,false,1,831.2349999996368,0,1,1,89874,WMM1,301919,false,false,196,image-keyboard-response,3
true,2,0,3,2,false,d,false,false,0.0-2.0-0.4-0.40-3.40,0,1,0,81,false,stim,true,0,573.6099999994622,0,0,0,89874,WMM1,304007,false,false,199,image-keyboard-response,4
true,2,0,3,0,true,q,false,false,0.0-2.0-0.4-0.41-3.41,0,1,0,81,false,stim,false,1,602.0150000004214,0,0,2,89874,WMM1,306119,false,true,202,image-keyboard-response,5
true,2,2,3,2,true,d,false,true,0.0-2.0-0.4-0.42-3.42,0,1,0,68,false,stim,false,0,911.114999998943,0,0,0,89874,WMM1,308543,false,false,205,image-keyboard-response,6
true,2,2,3,0,false,q,true,false,0.0-2.0-0.4-0.43-3.43,0,1,0,68,false,stim,false,1,515.3149999987218,0,0,2,89874,WMM1,310572,false,false,208,image-keyboard-response,7
true,2,2,3,2,true,d,false,true,0.0-2.0-0.4-0.44-3.44,0,1,0,68,false,stim,false,0,665.4650000000256,0,0,0,89874,WMM1,312751,false,false,211,image-keyboard-response,8
true,2,2,3,2,true,d,false,true,0.0-2.0-0.5-0.45-3.45,0,1,0,68,false,stim,false,0,605.8249999987311,0,0,0,89874,WMM1,314870,false,false,214,image-keyboard-response,9
true,2,1,3,0,false,q,false,false,0.0-2.0-0.5-0.46-3.46,0,1,0,90,false,stim,true,1,1080.560000000347,0,0,2,89874,WMM1,317465,false,false,217,image-keyboard-response,10
true,2,1,3,1,true,z,false,true,0.0-2.0-0.5-0.47-3.47,0,1,0,90,false,stim,false,1,880.460000000312,0,1,1,89874,WMM1,319861,false,false,220,image-keyboard-response,11
true,2,2,3,2,true,d,false,true,0.0-2.0-0.5-0.48-3.48,0,1,0,68,false,stim,false,0,710.0000000009313,0,0,0,89874,WMM1,322077,false,false,223,image-keyboard-response,12
true,2,1,3,1,true,z,false,true,0.0-2.0-0.5-0.49-3.49,0,1,0,90,false,stim,false,1,1201.7500000001746,0,1,1,89874,WMM1,324789,false,false,226,image-keyboard-response,13
true,2,0,3,0,true,q,false,true,0.0-2.0-0.5-0.50-3.50,0,1,0,81,false,stim,false,1,781.1249999995343,0,0,2,89874,WMM1,327085,false,false,229,image-keyboard-response,14
true,2,2,3,2,true,d,false,true,0.0-2.0-0.5-0.51-3.51,0,1,0,68,false,stim,false,0,839.3050000013318,0,0,0,89874,WMM1,329438,false,false,232,image-keyboard-response,15
true,2,0,3,0,true,q,false,false,0.0-2.0-0.5-0.52-3.52,0,1,0,81,false,stim,false,1,548.1650000001537,0,0,2,89874,WMM1,331501,false,true,235,image-keyboard-response,16
true,2,1,3,1,true,z,false,true,0.0-2.0-0.5-0.53-3.53,0,1,0,90,false,stim,false,1,613.4249999995809,0,1,1,89874,WMM1,333629,false,false,238,image-keyboard-response,17
true,2,1,3,1,true,z,false,true,0.0-2.0-0.6-0.54-3.54,0,1,0,90,false,stim,false,1,644.7549999993062,0,1,1,89874,WMM1,335781,false,false,241,image-keyboard-response,18
true,2,1,3,1,true,z,false,true,0.0-2.0-0.6-0.55-3.55,0,1,0,90,false,stim,false,1,572.1200000006938,0,1,1,89874,WMM1,337861,false,false,244,image-keyboard-response,19
true,2,2,3,0,false,q,true,false,0.0-2.0-0.6-0.56-3.56,0,1,0,68,false,stim,false,1,1343.8249999998952,0,0,2,89874,WMM1,340717,false,false,247,image-keyboard-response,20
true,2,2,3,2,true,d,false,true,0.0-2.0-0.6-0.57-3.57,0,1,0,68,false,stim,false,0,1053.7300000014366,0,0,0,89874,WMM1,343285,false,false,250,image-keyboard-response,21
true,2,2,3,2,true,d,false,true,0.0-2.0-0.6-0.58-3.58,0,1,0,68,false,stim,false,0,512.9999999990105,0,0,0,89874,WMM1,345309,false,false,253,image-keyboard-response,22
true,2,1,3,0,false,q,false,false,0.0-2.0-0.6-0.59-3.59,0,1,0,90,false,stim,true,1,653.3049999998184,0,0,2,89874,WMM1,347476,false,false,256,image-keyboard-response,23
true,2,2,3,2,true,d,false,true,0.0-2.0-0.6-0.60-3.60,0,1,0,68,false,stim,false,0,1077.0349999984028,0,0,0,89874,WMM1,350068,false,false,259,image-keyboard-response,24
true,2,1,3,1,true,z,false,true,0.0-2.0-0.6-0.61-3.61,0,1,0,90,false,stim,false,1,632.3250000005355,0,1,1,89874,WMM1,352212,false,false,262,image-keyboard-response,25
true,2,0,3,0,true,q,false,true,0.0-2.0-0.6-0.62-3.62,0,1,0,81,false,stim,false,1,559.5549999998184,0,0,2,89874,WMM1,354285,false,false,265,image-keyboard-response,26
true,2,2,3,2,true,d,false,true,0.0-2.0-0.7-0.63-3.63,0,1,0,68,false,stim,false,0,784.2600000003586,0,0,0,89874,WMM1,356580,false,false,268,image-keyboard-response,27
true,2,0,3,0,true,q,false,true,0.0-2.0-0.7-0.64-3.64,0,1,0,81,false,stim,false,1,758.7799999982817,0,0,2,89874,WMM1,358853,false,false,271,image-keyboard-response,28
true,2,2,3,2,true,d,false,true,0.0-2.0-0.7-0.65-3.65,0,1,0,68,false,stim,false,0,866.9300000001676,0,0,0,89874,WMM1,361235,false,false,274,image-keyboard-response,29
true,2,2,3,2,true,d,false,true,0.0-2.0-0.7-0.66-3.66,0,1,0,68,false,stim,false,0,662.1050000012619,0,0,0,89874,WMM1,363404,false,false,277,image-keyboard-response,30
true,2,1,3,1,true,z,false,true,0.0-2.0-0.7-0.67-3.67,0,1,0,90,false,stim,false,1,1210.1149999998743,0,0,1,89874,WMM1,366124,false,false,280,image-keyboard-response,31
true,2,0,3,0,true,q,false,true,0.0-2.0-0.7-0.68-3.68,0,1,0,81,false,stim,false,1,776.5499999986496,0,0,2,89874,WMM1,368412,false,false,283,image-keyboard-response,32
true,2,1,3,1,true,z,false,true,0.0-2.0-0.7-0.69-3.69,0,1,0,90,false,stim,false,1,1038.5749999986729,0,0,1,89874,WMM1,370964,false,false,286,image-keyboard-response,33
true,2,2,3,0,false,q,true,true,0.0-2.0-0.7-0.70-3.70,0,1,0,68,false,stim,false,1,738.1999999997788,0,0,2,89874,WMM1,373212,false,true,289,image-keyboard-response,34
true,2,1,3,1,true,z,false,true,0.0-2.0-0.7-0.71-3.71,0,1,0,90,false,stim,false,1,1209.1399999990244,0,0,1,89874,WMM1,375931,false,false,292,image-keyboard-response,35
true,2,2,3,2,true,d,false,true,0.0-2.0-0.8-0.72-3.72,0,1,0,68,false,stim,false,0,903.9750000010827,0,0,0,89874,WMM1,378345,false,false,295,image-keyboard-response,36
true,2,2,3,2,true,d,false,true,0.0-2.0-0.8-0.73-3.73,0,1,0,68,false,stim,false,0,578.6200000002282,0,0,0,89874,WMM1,380435,false,false,298,image-keyboard-response,37
true,2,0,3,0,true,q,false,true,0.0-2.0-0.8-0.74-3.74,0,1,0,81,false,stim,false,1,806.8700000003446,0,0,2,89874,WMM1,382758,false,false,301,image-keyboard-response,38
true,3,2,1,1,false,z,false,false,0.0-2.0-0.8-0.75-3.75,0,0,0,68,true,stim,true,2,649.8149999988382,0,0,0,89874,WMM1,384923,false,false,304,image-keyboard-response,1
true,3,1,1,2,false,d,false,false,0.0-2.0-0.8-0.76-3.76,0,0,0,90,false,stim,true,1,1060.2150000013644,0,0,1,89874,WMM1,387497,false,false,307,image-keyboard-response,2
true,3,0,1,2,false,d,true,true,0.0-2.0-0.8-0.77-3.77,0,0,0,81,false,stim,false,1,839.8399999986868,0,0,1,89874,WMM1,389851,false,true,310,image-keyboard-response,3
true,3,0,1,2,false,d,true,false,0.0-2.0-0.8-0.78-3.78,0,0,0,81,false,stim,false,1,531.5950000003213,0,0,1,89874,WMM1,391897,false,false,313,image-keyboard-response,4
true,3,0,1,1,false,z,false,false,0.0-2.0-0.8-0.79-3.79,0,0,0,81,false,stim,true,0,1263.9749999998603,0,0,2,89874,WMM1,394675,false,false,316,image-keyboard-response,5
true,3,1,1,1,true,z,false,true,0.0-2.0-0.8-0.80-3.80,0,0,0,90,false,stim,false,0,653.3199999994249,0,0,2,89874,WMM1,396842,false,false,319,image-keyboard-response,6
true,3,1,1,2,false,d,false,true,0.0-2.0-0.9-0.81-3.81,0,0,0,90,false,stim,true,1,1045.0749999999534,0,0,1,89874,WMM1,399402,false,true,322,image-keyboard-response,7
true,3,0,1,1,false,z,true,false,0.0-2.0-0.9-0.82-3.82,0,0,0,81,false,stim,false,2,852.1149999996996,0,0,0,89874,WMM1,401770,false,false,325,image-keyboard-response,8
true,3,1,1,1,true,z,false,true,0.0-2.0-0.9-0.83-3.83,0,0,0,90,false,stim,false,2,664.3400000011898,0,0,0,89874,WMM1,403946,false,false,328,image-keyboard-response,9
true,3,1,1,1,true,z,false,true,0.0-2.0-0.9-0.84-3.84,0,0,0,90,false,stim,false,0,336.6050000003888,0,0,2,89874,WMM1,405794,false,false,331,image-keyboard-response,10
true,3,1,1,1,true,z,false,true,0.0-2.0-0.9-0.85-3.85,0,0,0,90,false,stim,false,2,173.00999999861233,0,0,0,89874,WMM1,407482,false,false,334,image-keyboard-response,11
true,3,1,1,1,true,z,false,true,0.0-2.0-0.9-0.86-3.86,0,0,0,90,false,stim,false,0,23.77999999950407,0,0,2,89874,WMM1,409021,false,false,337,image-keyboard-response,12
true,3,1,1,2,false,d,false,true,0.0-2.0-0.9-0.87-3.87,0,0,0,90,false,stim,true,1,280.824999999837,0,0,1,89874,WMM1,410817,false,true,340,image-keyboard-response,13
true,3,1,1,1,true,z,false,true,0.0-2.0-0.9-0.88-3.88,0,0,0,90,false,stim,false,0,447.52999999950407,0,0,2,89874,WMM1,412781,false,false,343,image-keyboard-response,14
true,3,1,1,2,false,d,false,false,0.0-2.0-0.9-0.89-3.89,0,0,0,90,false,stim,true,1,319.91500000003725,0,0,1,89874,WMM1,414610,false,false,346,image-keyboard-response,15
true,3,1,1,1,true,z,false,true,0.0-2.0-0.10-0.90-3.90,0,0,0,90,false,stim,false,0,465.610000001092,0,0,2,89874,WMM1,416591,false,false,349,image-keyboard-response,16
true,3,0,1,2,false,d,true,false,0.0-2.0-0.10-0.91-3.91,0,0,0,81,false,stim,false,1,520.4850000009174,0,0,1,89874,WMM1,418627,false,false,352,image-keyboard-response,17
true,3,1,1,1,true,z,false,true,0.0-2.0-0.10-0.92-3.92,0,0,0,90,false,stim,false,0,594.2050000012387,0,0,2,89874,WMM1,420729,false,false,355,image-keyboard-response,18
true,3,1,1,1,true,z,false,true,0.0-2.0-0.10-0.93-3.93,0,0,0,90,false,stim,false,0,557.2400000000489,0,0,2,89874,WMM1,422801,false,false,358,image-keyboard-response,19
true,3,1,1,1,true,z,false,true,0.0-2.0-0.10-0.94-3.94,0,0,0,90,false,stim,false,2,551.7500000005239,0,0,0,89874,WMM1,424865,false,false,361,image-keyboard-response,20
true,3,2,1,2,true,d,false,true,0.0-2.0-0.10-0.95-3.95,0,0,0,68,false,stim,false,1,552.9499999993131,0,0,1,89874,WMM1,426929,false,false,364,image-keyboard-response,21
true,3,1,1,1,true,z,false,true,0.0-2.0-0.10-0.96-3.96,0,0,0,90,false,stim,false,2,557.1099999997532,0,0,0,89874,WMM1,428999,false,false,367,image-keyboard-response,22
true,3,1,1,1,true,z,false,true,0.0-2.0-0.10-0.97-3.97,0,0,0,90,false,stim,false,2,484.48500000085915,0,0,0,89874,WMM1,430993,false,false,370,image-keyboard-response,23
true,3,2,1,2,true,d,false,false,0.0-2.0-0.10-0.98-3.98,0,0,0,68,false,stim,false,1,934.0649999994785,0,0,1,89874,WMM1,433448,false,true,373,image-keyboard-response,24
true,3,1,1,1,true,z,false,true,0.0-2.0-0.11-0.99-3.99,0,0,0,90,false,stim,false,0,499.63500000012573,0,0,2,89874,WMM1,435465,false,false,376,image-keyboard-response,25
true,3,1,1,1,true,z,false,true,0.0-2.0-0.11-0.100-3.100,0,0,0,90,false,stim,false,0,845.1700000005076,0,0,2,89874,WMM1,437820,false,false,379,image-keyboard-response,26
true,3,1,1,1,true,z,false,true,0.0-2.0-0.11-0.101-3.101,0,0,0,90,false,stim,false,2,577.5350000003818,0,0,0,89874,WMM1,439904,false,false,382,image-keyboard-response,27
true,3,1,1,2,false,d,false,false,0.0-2.0-0.11-0.102-3.102,0,0,0,90,false,stim,true,1,400.29000000143424,0,0,1,89874,WMM1,441819,false,false,385,image-keyboard-response,28
true,3,1,1,1,true,z,false,false,0.0-2.0-0.11-0.103-3.103,0,0,0,90,false,stim,false,2,399.00000000122236,0,0,0,89874,WMM1,443728,false,true,388,image-keyboard-response,29
true,3,0,1,2,false,d,true,false,0.0-2.0-0.11-0.104-3.104,0,0,0,81,false,stim,false,1,709.9999999991269,0,0,1,89874,WMM1,445952,false,false,391,image-keyboard-response,30
true,3,0,1,1,false,z,true,false,0.0-2.0-0.11-0.105-3.105,0,0,0,81,false,stim,false,2,471.63500000169734,0,0,0,89874,WMM1,447938,false,false,394,image-keyboard-response,31
true,3,1,1,1,true,z,false,true,0.0-2.0-0.11-0.106-3.106,0,0,0,90,false,stim,false,0,650.9850000002189,0,0,2,89874,WMM1,450104,false,false,397,image-keyboard-response,32
true,3,2,1,2,true,d,false,true,0.0-2.0-0.11-0.107-3.107,0,0,0,68,false,stim,false,1,605.8999999986845,0,0,1,89874,WMM1,452223,false,false,400,image-keyboard-response,33
true,3,2,1,2,true,d,false,true,0.0-2.0-0.12-0.108-3.108,0,0,0,68,false,stim,false,1,537.2999999999884,0,0,1,89874,WMM1,454270,false,false,403,image-keyboard-response,34
true,4,2,2,1,false,z,false,false,0.0-2.0-0.12-0.109-3.109,0,0,0,68,true,stim,true,2,454.6849999987753,0,0,1,89874,WMM1,456239,false,false,406,image-keyboard-response,1
true,4,1,2,0,false,q,false,false,0.0-2.0-0.12-0.110-3.110,0,0,0,90,false,stim,true,1,653.0650000004098,0,0,2,89874,WMM1,458403,false,false,409,image-keyboard-response,2
true,4,2,2,2,true,d,false,true,0.0-2.0-0.12-0.111-3.111,0,0,0,68,false,stim,false,1,929.1849999990663,0,0,0,89874,WMM1,460841,false,false,412,image-keyboard-response,3
true,4,0,2,0,true,q,false,true,0.0-2.0-0.12-0.112-3.112,0,0,0,81,false,stim,false,1,971.9400000012829,0,0,2,89874,WMM1,463327,false,false,415,image-keyboard-response,4
true,4,0,2,0,true,q,false,true,0.0-2.0-0.12-0.113-3.113,0,0,0,81,false,stim,false,1,569.2450000005774,0,0,2,89874,WMM1,465411,false,false,418,image-keyboard-response,5
true,4,2,2,2,true,d,false,true,0.0-2.0-0.12-0.114-3.114,0,0,0,68,false,stim,false,1,746.914999999688,0,0,0,89874,WMM1,467672,false,false,421,image-keyboard-response,6
true,4,2,2,2,true,d,false,true,0.0-2.0-0.12-0.115-3.115,0,0,0,68,false,stim,false,1,574.9300000006915,0,0,0,89874,WMM1,469757,false,false,424,image-keyboard-response,7
true,4,1,2,1,true,z,false,true,0.0-2.0-0.12-0.116-3.116,0,0,0,90,false,stim,false,2,1208.6550000003772,0,0,1,89874,WMM1,472479,false,false,427,image-keyboard-response,8
true,4,0,2,2,false,d,true,false,0.0-2.0-0.13-0.117-3.117,0,0,0,81,false,stim,false,1,692.6800000001094,0,0,0,89874,WMM1,474686,false,false,430,image-keyboard-response,9
true,4,1,2,1,true,z,false,true,0.0-2.0-0.13-0.118-3.118,0,0,0,90,false,stim,false,2,869.0099999985541,0,0,1,89874,WMM1,477063,false,false,433,image-keyboard-response,10
true,4,2,2,2,true,d,false,true,0.0-2.0-0.13-0.119-3.119,0,0,0,68,false,stim,false,1,677.5500000003376,0,0,0,89874,WMM1,479255,false,false,436,image-keyboard-response,11
true,4,0,2,0,true,q,false,true,0.0-2.0-0.13-0.120-3.120,0,0,0,81,false,stim,false,1,640.8899999987334,0,0,2,89874,WMM1,481406,false,false,439,image-keyboard-response,12
true,4,0,2,0,true,q,false,true,0.0-2.0-0.13-0.121-3.121,0,0,0,81,false,stim,false,1,689.9800000010291,0,0,2,89874,WMM1,483606,false,false,442,image-keyboard-response,13
true,4,1,2,1,true,z,false,true,0.0-2.0-0.13-0.122-3.122,0,0,0,90,false,stim,false,2,749.0799999996088,0,0,1,89874,WMM1,485870,false,false,445,image-keyboard-response,14
true,4,2,2,2,true,d,false,true,0.0-2.0-0.13-0.123-3.123,0,0,0,68,false,stim,false,1,1339.9250000002212,0,0,0,89874,WMM1,488718,false,false,448,image-keyboard-response,15
true,4,1,2,1,true,z,false,true,0.0-2.0-0.13-0.124-3.124,0,0,0,90,false,stim,false,2,657.9200000014389,0,0,1,89874,WMM1,490886,false,false,451,image-keyboard-response,16
true,4,0,2,0,true,q,false,true,0.0-2.0-0.13-0.125-3.125,0,0,0,81,false,stim,false,1,442.69000000169035,0,0,2,89874,WMM1,492839,false,false,454,image-keyboard-response,17
true,4,2,2,2,true,d,false,true,0.0-2.0-0.14-0.126-3.126,0,0,0,68,false,stim,false,1,647.6249999995925,0,0,0,89874,WMM1,495006,false,false,457,image-keyboard-response,18
true,4,1,2,1,true,z,false,true,0.0-2.0-0.14-0.127-3.127,0,0,0,90,false,stim,false,2,587.3850000007078,0,0,1,89874,WMM1,497102,false,false,460,image-keyboard-response,19
true,4,1,2,1,true,z,false,true,0.0-2.0-0.14-0.128-3.128,0,0,0,90,false,stim,false,2,534.2550000005285,0,0,1,89874,WMM1,499148,false,false,463,image-keyboard-response,20
true,4,1,2,1,true,z,false,true,0.0-2.0-0.14-0.129-3.129,0,0,0,90,false,stim,false,2,574.2699999992037,0,0,1,89874,WMM1,501230,false,false,466,image-keyboard-response,21
true,4,0,2,0,true,q,false,false,0.0-2.0-0.14-0.130-3.130,0,0,0,81,false,stim,false,1,1102.25999999966,0,0,2,89874,WMM1,503846,false,true,469,image-keyboard-response,22
true,4,2,2,2,true,d,false,true,0.0-2.0-0.14-0.131-3.131,0,0,0,68,false,stim,false,1,1244.7599999996019,0,0,0,89874,WMM1,506605,false,false,472,image-keyboard-response,23
true,4,2,2,2,true,d,false,true,0.0-2.0-0.14-0.132-3.132,0,0,0,68,false,stim,false,1,571.2399999993504,0,0,0,89874,WMM1,508685,false,false,475,image-keyboard-response,24
true,4,0,2,0,true,q,false,true,0.0-2.0-0.14-0.133-3.133,0,0,0,81,false,stim,false,1,1451.7900000009686,0,0,2,89874,WMM1,511647,false,false,478,image-keyboard-response,25
true,4,0,2,0,true,q,false,true,0.0-2.0-0.14-0.134-3.134,0,0,0,81,false,stim,false,1,493.3549999987008,0,0,2,89874,WMM1,513653,false,false,481,image-keyboard-response,26
true,4,2,2,2,true,d,false,true,0.0-2.0-0.15-0.135-3.135,0,0,0,68,false,stim,false,1,578.3100000008126,0,0,0,89874,WMM1,515740,false,false,484,image-keyboard-response,27
true,4,0,2,0,true,q,false,true,0.0-2.0-0.15-0.136-3.136,0,0,0,81,false,stim,false,1,561.3449999982258,0,0,2,89874,WMM1,517813,false,false,487,image-keyboard-response,28
true,4,1,2,1,true,z,false,true,0.0-2.0-0.15-0.137-3.137,0,0,0,90,false,stim,false,2,453.3299999984447,0,0,1,89874,WMM1,519780,false,false,490,image-keyboard-response,29
true,4,2,2,2,true,d,false,true,0.0-2.0-0.15-0.138-3.138,0,0,0,68,false,stim,false,1,539.9249999991152,0,0,0,89874,WMM1,521837,false,false,493,image-keyboard-response,30
true,5,0,1,0,true,q,false,true,0.0-2.0-0.15-0.139-3.139,0,0,0,81,true,stim,false,1,855.0749999994878,0,0,1,89874,WMM1,524203,false,false,496,image-keyboard-response,1
true,5,1,1,2,false,d,true,false,0.0-2.0-0.15-0.140-3.140,0,0,0,90,false,stim,false,0,702.0699999993667,0,0,2,89874,WMM1,526419,false,false,499,image-keyboard-response,2
true,5,0,1,0,true,q,false,true,0.0-2.0-0.15-0.141-3.141,0,0,0,81,false,stim,false,1,730.459999998915,0,0,1,89874,WMM1,528667,false,false,502,image-keyboard-response,3
true,5,0,1,2,false,d,false,false,0.0-2.0-0.15-0.142-3.142,0,0,0,81,false,stim,true,0,663.4349999986589,0,0,2,89874,WMM1,530836,false,false,505,image-keyboard-response,4
true,5,2,1,0,false,q,false,false,0.0-2.0-0.15-0.143-3.143,0,0,0,68,false,stim,true,2,844.930000001099,0,0,0,89874,WMM1,533188,false,false,508,image-keyboard-response,5
true,5,1,1,0,false,q,true,false,0.0-2.0-0.16-0.144-3.144,0,0,0,90,false,stim,false,2,1325.1649999984074,0,0,0,89874,WMM1,536028,false,false,511,image-keyboard-response,6
true,5,0,1,0,true,q,false,false,0.0-2.0-0.16-0.145-3.145,0,0,0,81,false,stim,false,1,850.5899999999674,0,0,1,89874,WMM1,538388,false,true,514,image-keyboard-response,7
true,5,0,1,2,false,d,false,false,0.0-2.0-0.16-0.146-3.146,0,0,0,81,false,stim,true,0,901.859999999986,0,0,2,89874,WMM1,540805,false,false,517,image-keyboard-response,8
true,5,1,1,2,false,d,true,false,0.0-2.0-0.16-0.147-3.147,0,0,0,90,false,stim,false,0,676.8499999998603,0,0,2,89874,WMM1,542996,false,false,520,image-keyboard-response,9
true,5,2,1,0,false,q,false,false,0.0-2.0-0.16-0.148-3.148,0,0,0,68,false,stim,true,2,811.4650000007823,0,0,0,89874,WMM1,545322,false,false,523,image-keyboard-response,10
true,5,0,1,0,true,q,false,true,0.0-2.0-0.16-0.149-3.149,0,0,0,81,false,stim,false,2,640.2649999998976,0,0,0,89874,WMM1,547475,false,false,526,image-keyboard-response,11
true,5,2,1,2,true,d,false,true,0.0-2.0-0.16-0.150-3.150,0,0,0,68,false,stim,false,0,605.4949999998789,0,0,2,89874,WMM1,549595,false,false,529,image-keyboard-response,12
true,5,1,1,0,false,q,false,false,0.0-2.0-0.16-0.151-3.151,0,0,0,90,false,stim,true,1,512.150000000489,0,0,1,89874,WMM1,551619,false,false,532,image-keyboard-response,13
true,5,0,1,0,true,q,false,true,0.0-2.0-0.16-0.152-3.152,0,0,0,81,false,stim,false,1,589.2750000002561,0,0,1,89874,WMM1,553723,false,false,535,image-keyboard-response,14
true,5,2,1,2,true,d,false,true,0.0-2.0-0.17-0.153-3.153,0,0,0,68,false,stim,false,0,802.3900000007125,0,0,2,89874,WMM1,556035,false,false,538,image-keyboard-response,15
true,5,0,1,0,true,q,false,true,0.0-2.0-0.17-0.154-3.154,0,0,0,81,false,stim,false,2,548.6500000006054,0,0,0,89874,WMM1,558099,false,false,541,image-keyboard-response,16
true,5,0,1,0,true,q,false,true,0.0-2.0-0.17-0.155-3.155,0,0,0,81,false,stim,false,1,422.7049999991432,0,0,1,89874,WMM1,560033,false,false,544,image-keyboard-response,17
true,5,2,1,2,true,d,false,true,0.0-2.0-0.17-0.156-3.156,0,0,0,68,false,stim,false,0,474.3649999999907,0,0,2,89874,WMM1,562019,false,false,547,image-keyboard-response,18
true,5,1,1,0,false,q,false,false,0.0-2.0-0.17-0.157-3.157,0,0,0,90,false,stim,true,1,1237.1650000003865,0,0,1,89874,WMM1,564771,false,false,550,image-keyboard-response,19
true,5,0,1,0,true,q,false,true,0.0-2.0-0.17-0.158-3.158,0,0,0,81,false,stim,false,2,650.9200000000419,0,0,0,89874,WMM1,566931,false,false,553,image-keyboard-response,20
true,5,0,1,0,true,q,false,true,0.0-2.0-0.17-0.159-3.159,0,0,0,81,false,stim,false,2,372.63499999966007,0,0,0,89874,WMM1,568818,false,false,556,image-keyboard-response,21
true,5,0,1,0,true,q,false,true,0.0-2.0-0.17-0.160-3.160,0,0,0,81,false,stim,false,1,581.6400000002468,0,0,1,89874,WMM1,570915,false,false,559,image-keyboard-response,22
true,5,2,1,2,true,d,false,true,0.0-2.0-0.17-0.161-3.161,0,0,0,68,false,stim,false,0,612.9300000012154,0,0,2,89874,WMM1,573042,false,false,562,image-keyboard-response,23
true,5,0,1,0,true,q,false,false,0.0-2.0-0.18-0.162-3.162,0,0,0,81,false,stim,false,1,1131.1200000001118,0,0,1,89874,WMM1,575688,false,true,565,image-keyboard-response,24
true,5,1,1,0,false,q,false,false,0.0-2.0-0.18-0.163-3.163,0,0,0,90,false,stim,true,1,918.5850000012433,0,0,1,89874,WMM1,578122,false,false,568,image-keyboard-response,25
true,5,2,1,0,false,q,true,false,0.0-2.0-0.18-0.164-3.164,0,0,0,68,false,stim,false,1,526.0350000007311,0,0,1,89874,WMM1,580162,false,false,571,image-keyboard-response,26
true,5,2,1,2,true,d,false,true,0.0-2.0-0.18-0.165-3.165,0,0,0,68,false,stim,false,0,806.1850000013364,0,0,2,89874,WMM1,582477,false,false,574,image-keyboard-response,27
true,5,0,1,0,true,q,false,true,0.0-2.0-0.18-0.166-3.166,0,0,0,81,false,stim,false,2,676.8499999997439,0,0,0,89874,WMM1,584667,false,false,577,image-keyboard-response,28
true,5,2,1,2,true,d,false,true,0.0-2.0-0.18-0.167-3.167,0,0,0,68,false,stim,false,0,722.7199999998556,0,0,2,89874,WMM1,586897,false,false,580,image-keyboard-response,29
true,5,0,1,0,true,q,false,true,0.0-2.0-0.18-0.168-3.168,0,0,0,81,false,stim,false,2,934.0600000014529,0,0,0,89874,WMM1,589345,false,false,583,image-keyboard-response,30
true,5,0,1,0,true,q,false,true,0.0-2.0-0.18-0.169-3.169,0,0,0,81,false,stim,false,2,547.8800000000047,0,0,0,89874,WMM1,591401,false,false,586,image-keyboard-response,31
true,5,2,1,2,true,d,false,true,0.0-2.0-0.18-0.170-3.170,0,0,0,68,false,stim,false,0,613.7149999995017,0,0,2,89874,WMM1,593530,false,false,589,image-keyboard-response,32
true,5,2,1,2,true,d,false,true,0.0-2.0-0.19-0.171-3.171,0,0,0,68,false,stim,false,0,767.3449999984587,0,0,2,89874,WMM1,595809,false,false,592,image-keyboard-response,33
true,5,2,1,2,true,d,false,true,0.0-2.0-0.19-0.172-3.172,0,0,0,68,false,stim,false,0,472.35499999986496,0,0,2,89874,WMM1,597793,false,false,595,image-keyboard-response,34
true,6,2,2,0,false,q,false,false,0.0-2.0-0.19-0.173-3.173,0,0,0,68,true,stim,true,2,464.1550000014249,0,0,2,89874,WMM1,599770,false,false,598,image-keyboard-response,1
true,6,0,2,2,false,d,false,true,0.0-2.0-0.19-0.174-3.174,0,0,0,81,false,stim,true,0,671.119999999064,0,0,0,89874,WMM1,601961,false,true,601,image-keyboard-response,2
true,6,1,2,1,true,z,false,true,0.0-2.0-0.19-0.175-3.175,0,0,0,90,false,stim,false,0,808.865000000922,0,0,1,89874,WMM1,604281,false,false,604,image-keyboard-response,3
true,6,1,2,1,true,z,false,true,0.0-2.0-0.19-0.176-3.176,0,0,0,90,false,stim,false,0,484.07000000053085,0,0,1,89874,WMM1,606280,false,false,607,image-keyboard-response,4
true,6,0,2,2,false,d,false,false,0.0-2.0-0.19-0.177-3.177,0,0,0,81,false,stim,true,0,628.2449999998789,0,0,0,89874,WMM1,608424,false,false,610,image-keyboard-response,5
true,6,1,2,1,true,z,false,true,0.0-2.0-0.19-0.178-3.178,0,0,0,90,false,stim,false,0,550.6099999983562,0,0,1,89874,WMM1,610489,false,false,613,image-keyboard-response,6
true,6,2,2,2,true,d,false,true,0.0-2.0-0.19-0.179-3.179,0,0,0,68,false,stim,false,0,796.7050000006566,0,0,0,89874,WMM1,612801,false,false,616,image-keyboard-response,7
true,6,1,2,1,true,z,false,true,0.0-2.0-0.20-0.180-3.180,0,0,0,90,false,stim,false,0,798.0099999986123,0,0,1,89874,WMM1,615112,false,false,619,image-keyboard-response,8
true,6,2,2,0,false,q,false,false,0.0-2.0-0.20-0.181-3.181,0,0,0,68,false,stim,true,2,814.7150000004331,0,0,2,89874,WMM1,617441,false,false,622,image-keyboard-response,9
true,6,2,2,2,true,d,false,true,0.0-2.0-0.20-0.182-3.182,0,0,0,68,false,stim,false,0,816.3600000006845,0,0,0,89874,WMM1,619768,false,false,625,image-keyboard-response,10
true,6,2,2,2,true,d,false,true,0.0-2.0-0.20-0.183-3.183,0,0,0,68,false,stim,false,0,558.440000000759,0,0,0,89874,WMM1,621840,false,false,628,image-keyboard-response,11
true,6,0,2,0,true,q,false,true,0.0-2.0-0.20-0.184-3.184,0,0,0,81,false,stim,false,2,1057.66500000027,0,0,2,89874,WMM1,624408,false,false,631,image-keyboard-response,12
true,6,1,2,1,true,z,false,true,0.0-2.0-0.20-0.185-3.185,0,0,0,90,false,stim,false,0,1113.9050000001444,0,0,1,89874,WMM1,627032,false,false,634,image-keyboard-response,13
true,6,1,2,1,true,z,false,true,0.0-2.0-0.20-0.186-3.186,0,0,0,90,false,stim,false,0,565.0499999992317,0,0,1,89874,WMM1,629112,false,false,637,image-keyboard-response,14
true,6,2,2,2,true,d,false,true,0.0-2.0-0.20-0.187-3.187,0,0,0,68,false,stim,false,0,741.1549999997951,0,0,0,89874,WMM1,631367,false,false,640,image-keyboard-response,15
true,6,0,2,0,true,q,false,true,0.0-2.0-0.20-0.188-3.188,0,0,0,81,false,stim,false,2,413.74999999965075,0,0,2,89874,WMM1,633296,false,false,643,image-keyboard-response,16
true,6,0,2,0,true,q,false,true,0.0-2.0-0.21-0.189-3.189,0,0,0,81,false,stim,false,2,854.4000000001397,0,0,2,89874,WMM1,635662,false,false,646,image-keyboard-response,17
true,6,2,2,2,true,d,false,true,0.0-2.0-0.21-0.190-3.190,0,0,0,68,false,stim,false,0,669.8450000004377,0,0,0,89874,WMM1,637840,false,false,649,image-keyboard-response,18
true,6,1,2,1,true,z,false,true,0.0-2.0-0.21-0.191-3.191,0,0,0,90,false,stim,false,0,404.28999999864027,0,0,1,89874,WMM1,639759,false,false,652,image-keyboard-response,19
true,6,1,2,1,true,z,false,false,0.0-2.0-0.21-0.192-3.192,0,0,0,90,false,stim,false,0,477.8100000002887,0,0,1,89874,WMM1,641751,false,true,655,image-keyboard-response,20
true,6,0,2,0,true,q,false,true,0.0-2.0-0.21-0.193-3.193,0,0,0,81,false,stim,false,2,772.1000000000931,0,0,2,89874,WMM1,644038,false,false,658,image-keyboard-response,21
true,6,2,2,2,true,d,false,true,0.0-2.0-0.21-0.194-3.194,0,0,0,68,false,stim,false,0,510.6999999989057,0,0,0,89874,WMM1,646061,false,false,661,image-keyboard-response,22
true,6,0,2,0,true,q,false,true,0.0-2.0-0.21-0.195-3.195,0,0,0,81,false,stim,false,2,628.7899999988731,0,0,2,89874,WMM1,648199,false,false,664,image-keyboard-response,23
true,6,0,2,1,false,z,false,false,0.0-2.0-0.21-0.196-3.196,0,0,0,81,false,stim,true,0,840.5450000009732,0,0,1,89874,WMM1,650550,false,false,667,image-keyboard-response,24
true,6,2,2,2,true,d,false,true,0.0-2.0-0.21-0.197-3.197,0,0,0,68,false,stim,false,0,1237.194999999716,0,0,0,89874,WMM1,653302,false,false,670,image-keyboard-response,25
true,6,2,2,1,false,z,true,false,0.0-2.0-0.22-0.198-3.198,0,0,0,68,false,stim,false,0,962.4199999998091,0,0,1,89874,WMM1,655774,false,false,673,image-keyboard-response,26
true,6,0,2,0,true,q,false,true,0.0-2.0-0.22-0.199-3.199,0,0,0,81,false,stim,false,2,871.6400000012945,0,0,2,89874,WMM1,658161,false,false,676,image-keyboard-response,27
true,6,1,2,1,true,z,false,false,0.0-2.0-0.22-0.200-3.200,0,0,0,90,false,stim,false,0,769.8849999997765,0,0,1,89874,WMM1,660446,false,true,679,image-keyboard-response,28
true,6,0,2,0,true,q,false,true,0.0-2.0-0.22-0.201-3.201,0,0,0,81,false,stim,false,2,965.5100000000093,0,0,2,89874,WMM1,662926,false,false,682,image-keyboard-response,29
true,6,2,2,2,true,d,false,true,0.0-2.0-0.22-0.202-3.202,0,0,0,68,false,stim,false,0,668.5699999998324,0,0,0,89874,WMM1,665102,false,false,685,image-keyboard-response,30
true,7,0,1,2,false,d,false,false,0.0-2.0-0.22-0.203-3.203,0,0,0,81,true,stim,true,0,685.125,0,0,2,89874,WMM1,667302,false,false,688,image-keyboard-response,1
true,7,2,1,1,false,z,false,false,0.0-2.0-0.22-0.204-3.204,0,0,0,68,false,stim,true,2,700.8850000002421,0,0,0,89874,WMM1,669518,false,false,691,image-keyboard-response,2
true,7,1,1,1,true,z,false,true,0.0-2.0-0.22-0.205-3.205,0,0,0,90,false,stim,false,2,677.2649999985006,0,0,0,89874,WMM1,671710,false,false,694,image-keyboard-response,3
true,7,1,1,2,false,d,false,false,0.0-2.0-0.22-0.206-3.206,0,0,0,90,false,stim,true,1,578.559999999823,0,0,1,89874,WMM1,675433,false,false,697,image-keyboard-response,4
true,7,1,1,1,true,z,false,true,0.0-2.0-0.23-0.207-3.207,0,0,0,90,false,stim,false,2,853.1800000000512,0,0,0,89874,WMM1,677801,false,false,700,image-keyboard-response,5
true,7,0,1,2,false,d,true,false,0.0-2.0-0.23-0.208-3.208,0,0,0,81,false,stim,false,1,561.7750000001397,0,0,1,89874,WMM1,679874,false,false,703,image-keyboard-response,6
true,7,1,1,1,true,z,false,true,0.0-2.0-0.23-0.209-3.209,0,0,0,90,false,stim,false,2,805.6999999990221,0,0,0,89874,WMM1,682193,false,false,706,image-keyboard-response,7
true,7,2,1,2,true,d,false,true,0.0-2.0-0.23-0.210-3.210,0,0,0,68,false,stim,false,0,632.5649999998277,0,0,2,89874,WMM1,684337,false,false,709,image-keyboard-response,8
true,7,2,1,2,true,d,false,true,0.0-2.0-0.23-0.211-3.211,0,0,0,68,false,stim,false,0,540.9299999991199,0,0,2,89874,WMM1,686393,false,false,712,image-keyboard-response,9
true,7,2,1,2,true,d,false,true,0.0-2.0-0.23-0.212-3.212,0,0,0,68,false,stim,false,0,708.915000001085,0,0,2,89874,WMM1,688616,false,false,715,image-keyboard-response,10
true,7,1,1,2,false,d,false,false,0.0-2.0-0.23-0.213-3.213,0,0,0,90,false,stim,true,1,612.7400000004563,0,0,1,89874,WMM1,690744,false,false,718,image-keyboard-response,11
true,7,1,1,1,true,z,false,true,0.0-2.0-0.23-0.214-3.214,0,0,0,90,false,stim,false,2,1048.7299999987008,0,0,0,89874,WMM1,693304,false,false,721,image-keyboard-response,12
true,7,2,1,2,true,d,false,true,0.0-2.0-0.23-0.215-3.215,0,0,0,68,false,stim,false,1,560.4700000003213,0,0,1,89874,WMM1,695376,false,false,724,image-keyboard-response,13
true,7,1,1,1,true,z,false,true,0.0-2.0-0.24-0.216-3.216,0,0,0,90,false,stim,false,2,741.1499999997905,0,0,0,89874,WMM1,697632,false,false,727,image-keyboard-response,14
true,7,2,1,2,true,d,false,true,0.0-2.0-0.24-0.217-3.217,0,0,0,68,false,stim,false,1,643.6099999991711,0,0,1,89874,WMM1,699792,false,false,730,image-keyboard-response,15
true,7,2,1,2,true,d,false,true,0.0-2.0-0.24-0.218-3.218,0,0,0,68,false,stim,false,0,611.5449999996927,0,0,2,89874,WMM1,701912,false,false,733,image-keyboard-response,16
true,7,1,1,1,true,z,false,true,0.0-2.0-0.24-0.219-3.219,0,0,0,90,false,stim,false,2,627.3999999994412,0,0,0,89874,WMM1,704048,false,false,736,image-keyboard-response,17
true,7,2,1,2,true,d,false,true,0.0-2.0-0.24-0.220-3.220,0,0,0,68,false,stim,false,0,669.165000001085,0,0,2,89874,WMM1,706232,false,false,739,image-keyboard-response,18
true,7,1,1,2,false,d,false,false,0.0-2.0-0.24-0.221-3.221,0,0,0,90,false,stim,true,1,736.0600000011036,0,0,1,89874,WMM1,708483,false,false,742,image-keyboard-response,19
true,7,2,1,2,true,d,false,true,0.0-2.0-0.24-0.222-3.222,0,0,0,68,false,stim,false,1,490.73499999940395,0,0,1,89874,WMM1,710488,false,false,745,image-keyboard-response,20
true,7,1,1,1,true,z,false,false,0.0-2.0-0.24-0.223-3.223,0,0,0,90,false,stim,false,2,1236.4550000003073,0,0,0,89874,WMM1,713239,false,true,748,image-keyboard-response,21
true,7,2,1,2,true,d,false,true,0.0-2.0-0.24-0.224-3.224,0,0,0,68,false,stim,false,0,651.1549999995623,0,0,2,89874,WMM1,715405,false,false,751,image-keyboard-response,22
true,7,2,1,2,true,d,false,true,0.0-2.0-0.25-0.225-3.225,0,0,0,68,false,stim,false,0,598.3300000006566,0,0,2,89874,WMM1,717519,false,false,754,image-keyboard-response,23
true,7,2,1,2,true,d,false,true,0.0-2.0-0.25-0.226-3.226,0,0,0,68,false,stim,false,1,769.2400000013877,0,0,1,89874,WMM1,719802,false,false,757,image-keyboard-response,24
true,7,0,1,1,false,z,true,false,0.0-2.0-0.25-0.227-3.227,0,0,0,81,false,stim,false,2,498.0400000003865,0,0,0,89874,WMM1,721816,false,false,760,image-keyboard-response,25
true,7,2,1,2,true,d,false,true,0.0-2.0-0.25-0.228-3.228,0,0,0,68,false,stim,false,0,396.9500000003027,0,0,2,89874,WMM1,723727,false,false,763,image-keyboard-response,26
true,7,2,1,1,false,z,false,false,0.0-2.0-0.25-0.229-3.229,0,0,0,68,false,stim,true,2,255.9249999994645,0,0,0,89874,WMM1,725495,false,false,766,image-keyboard-response,27
true,7,2,1,2,true,d,false,true,0.0-2.0-0.25-0.230-3.230,0,0,0,68,false,stim,false,1,498.7149999997346,0,0,1,89874,WMM1,727510,false,false,769,image-keyboard-response,28
true,7,2,1,2,true,d,false,true,0.0-2.0-0.25-0.231-3.231,0,0,0,68,false,stim,false,1,563.9250000002794,0,0,1,89874,WMM1,729583,false,false,772,image-keyboard-response,29
true,7,1,1,1,true,z,false,true,0.0-2.0-0.25-0.232-3.232,0,0,0,90,false,stim,false,2,460.7249999990454,0,0,0,89874,WMM1,731559,false,false,775,image-keyboard-response,30
true,7,2,1,2,true,d,false,true,0.0-2.0-0.25-0.233-3.233,0,0,0,68,false,stim,false,0,632.1000000007916,0,0,2,89874,WMM1,733703,false,false,778,image-keyboard-response,31
true,7,1,1,1,true,z,false,true,0.0-2.0-0.26-0.234-3.234,0,0,0,90,false,stim,false,2,778.4300000004005,0,0,0,89874,WMM1,735995,false,false,781,image-keyboard-response,32
true,7,2,1,2,true,d,false,true,0.0-2.0-0.26-0.235-3.235,0,0,0,68,false,stim,false,0,453.2900000012014,0,0,2,89874,WMM1,737958,false,false,784,image-keyboard-response,33
true,7,1,1,1,true,z,false,true,0.0-2.0-0.26-0.236-3.236,0,0,0,90,false,stim,false,2,572.3300000008894,0,0,0,89874,WMM1,740047,false,false,787,image-keyboard-response,34
true,8,2,2,1,false,z,false,false,0.0-2.0-0.26-0.237-3.237,0,0,0,68,true,stim,true,2,788.9899999990594,0,0,1,89874,WMM1,742351,false,false,790,image-keyboard-response,1
true,8,0,2,2,false,d,true,false,0.0-2.0-0.26-0.238-3.238,0,0,0,81,false,stim,false,1,626.9400000000605,0,0,0,89874,WMM1,744486,false,false,793,image-keyboard-response,2
true,8,0,2,1,false,z,true,false,0.0-2.0-0.26-0.239-3.239,0,0,0,81,false,stim,false,2,531.3999999997905,0,0,1,89874,WMM1,746527,false,false,796,image-keyboard-response,3
true,8,2,2,0,false,q,false,false,0.0-2.0-0.26-0.240-3.240,0,0,0,68,false,stim,true,2,764.6850000001723,0,0,2,89874,WMM1,748806,false,false,799,image-keyboard-response,4
true,8,1,2,1,true,z,false,true,0.0-2.0-0.26-0.241-3.241,0,0,0,90,false,stim,false,2,642.2650000004796,0,0,1,89874,WMM1,750966,false,false,802,image-keyboard-response,5
true,8,1,2,0,false,q,true,false,0.0-2.0-0.26-0.242-3.242,0,0,0,90,false,stim,false,2,502.1700000015553,0,0,2,89874,WMM1,752983,false,false,805,image-keyboard-response,6
true,8,0,2,0,true,q,false,true,0.0-2.0-0.27-0.243-3.243,0,0,0,81,false,stim,false,2,589.5050000000047,0,0,2,89874,WMM1,755087,false,false,808,image-keyboard-response,7
true,8,1,2,1,true,z,false,true,0.0-2.0-0.27-0.244-3.244,0,0,0,90,false,stim,false,2,541.8900000003632,0,0,1,89874,WMM1,757142,false,false,811,image-keyboard-response,8
true,8,0,2,1,false,z,true,false,0.0-2.0-0.27-0.245-3.245,0,0,0,81,false,stim,false,2,407.77499999967404,0,0,1,89874,WMM1,759062,false,false,814,image-keyboard-response,9
true,8,2,2,2,true,d,false,true,0.0-2.0-0.27-0.246-3.246,0,0,0,68,false,stim,false,1,868.234999999986,0,0,0,89874,WMM1,761446,false,false,817,image-keyboard-response,10
true,8,0,2,0,true,q,false,false,0.0-2.0-0.27-0.247-3.247,0,0,0,81,false,stim,false,2,706.9550000014715,0,0,2,89874,WMM1,763662,false,true,820,image-keyboard-response,11
true,8,1,2,1,true,z,false,true,0.0-2.0-0.27-0.248-3.248,0,0,0,90,false,stim,false,2,596.4450000009965,0,0,1,89874,WMM1,765774,false,false,823,image-keyboard-response,12
true,8,2,2,2,true,d,false,true,0.0-2.0-0.27-0.249-3.249,0,0,0,68,false,stim,false,1,507.6850000004051,0,0,0,89874,WMM1,767790,false,false,826,image-keyboard-response,13
true,8,2,2,0,false,q,false,false,0.0-2.0-0.27-0.250-3.250,0,0,0,68,false,stim,true,2,703.8750000010477,0,0,2,89874,WMM1,770009,false,false,829,image-keyboard-response,14
true,8,2,2,2,true,d,false,true,0.0-2.0-0.27-0.251-3.251,0,0,0,68,false,stim,false,1,741.595000001369,0,0,0,89874,WMM1,772262,false,false,832,image-keyboard-response,15
true,8,1,2,0,false,q,true,false,0.0-2.0-0.28-0.252-3.252,0,0,0,90,false,stim,false,2,474.45000000158325,0,0,2,89874,WMM1,774251,false,false,835,image-keyboard-response,16
true,8,1,2,1,true,z,false,true,0.0-2.0-0.28-0.253-3.253,0,0,0,90,false,stim,false,2,1051.2799999996787,0,0,1,89874,WMM1,776813,false,false,838,image-keyboard-response,17
true,8,0,2,0,true,q,false,true,0.0-2.0-0.28-0.254-3.254,0,0,0,81,false,stim,false,2,598.814999999362,0,0,2,89874,WMM1,778926,false,false,841,image-keyboard-response,18
true,8,2,2,2,true,d,false,true,0.0-2.0-0.28-0.255-3.255,0,0,0,68,false,stim,false,1,917.1199999999953,0,0,0,89874,WMM1,781358,false,false,844,image-keyboard-response,19
true,8,2,2,2,true,d,false,true,0.0-2.0-0.28-0.256-3.256,0,0,0,68,false,stim,false,1,570.4449999993667,0,0,0,89874,WMM1,783439,false,false,847,image-keyboard-response,20
true,8,0,2,0,true,q,false,true,0.0-2.0-0.28-0.257-3.257,0,0,0,81,false,stim,false,2,613.8749999990687,0,0,2,89874,WMM1,785565,false,false,850,image-keyboard-response,21
true,8,2,2,2,true,d,false,false,0.0-2.0-0.28-0.258-3.258,0,0,0,68,false,stim,false,1,623.0600000016857,0,0,0,89874,WMM1,787701,false,true,853,image-keyboard-response,22
true,8,1,2,1,true,z,false,true,0.0-2.0-0.28-0.259-3.259,0,0,0,90,false,stim,false,2,728.1700000003912,0,0,1,89874,WMM1,789940,false,false,856,image-keyboard-response,23
true,8,1,2,1,true,z,false,true,0.0-2.0-0.28-0.260-3.260,0,0,0,90,false,stim,false,2,468.06500000099186,0,0,1,89874,WMM1,791917,false,false,859,image-keyboard-response,24
true,8,0,2,2,false,d,true,false,0.0-2.0-0.29-0.261-3.261,0,0,0,81,false,stim,false,1,1088.4750000004424,0,0,0,89874,WMM1,794522,false,false,862,image-keyboard-response,25
true,8,2,2,2,true,d,false,true,0.0-2.0-0.29-0.262-3.262,0,0,0,68,false,stim,false,1,607.6949999987846,0,0,0,89874,WMM1,796645,false,false,865,image-keyboard-response,26
true,8,1,2,1,true,z,false,false,0.0-2.0-0.29-0.263-3.263,0,0,0,90,false,stim,false,2,815.0699999987846,0,0,1,89874,WMM1,798972,false,true,868,image-keyboard-response,27
true,8,0,2,1,false,z,true,true,0.0-2.0-0.29-0.264-3.264,0,0,0,81,false,stim,false,2,774.8549999997485,0,0,1,89874,WMM1,801261,false,true,871,image-keyboard-response,28
true,8,0,2,0,true,q,false,true,0.0-2.0-0.29-0.265-3.265,0,0,0,81,false,stim,false,2,1127.764999999199,0,1,2,89874,WMM1,803901,false,false,874,image-keyboard-response,29
true,8,0,2,0,true,q,false,false,0.0-2.0-0.29-0.266-3.266,0,0,0,81,false,stim,false,2,536.5899999996182,0,1,2,89874,WMM1,805948,false,true,877,image-keyboard-response,30
true,8,0,2,1,false,z,true,false,0.0-2.0-0.29-0.267-3.267,0,0,0,81,false,stim,false,2,888.9950000011595,0,0,1,89874,WMM1,808349,false,false,880,image-keyboard-response,31
true,9,1,3,1,true,z,false,true,0.0-2.0-0.29-0.268-3.268,0,0,1,90,true,stim,false,2,657.4199999995762,0,0,0,89874,WMM1,810517,false,false,883,image-keyboard-response,1
true,9,2,3,0,false,q,true,false,0.0-2.0-0.29-0.269-3.269,0,0,1,68,false,stim,false,0,975.6050000014948,0,1,2,89874,WMM1,813004,false,false,886,image-keyboard-response,2
true,9,1,3,2,false,d,false,false,0.0-2.0-0.30-0.270-3.270,0,0,1,90,false,stim,true,1,659.6699999991106,0,0,1,89874,WMM1,815172,false,false,889,image-keyboard-response,3
true,9,1,3,0,false,q,true,false,0.0-2.0-0.30-0.271-3.271,0,0,1,90,false,stim,false,0,1284.3099999990081,0,1,2,89874,WMM1,817971,false,false,892,image-keyboard-response,4
true,9,1,3,2,false,d,false,false,0.0-2.0-0.30-0.272-3.272,0,0,1,90,false,stim,true,1,1153.220000000205,0,0,1,89874,WMM1,820636,false,false,895,image-keyboard-response,5
true,9,1,3,1,true,z,false,true,0.0-2.0-0.30-0.273-3.273,0,0,1,90,false,stim,false,2,908.5549999999348,0,0,0,89874,WMM1,823060,false,false,898,image-keyboard-response,6
true,9,1,3,1,true,z,false,true,0.0-2.0-0.30-0.274-3.274,0,0,1,90,false,stim,false,2,643.1449999999022,0,0,0,89874,WMM1,825223,false,false,901,image-keyboard-response,7
true,9,2,3,2,true,d,false,true,0.0-2.0-0.30-0.275-3.275,0,0,1,68,false,stim,false,1,718.1099999997532,0,0,1,89874,WMM1,827458,false,false,904,image-keyboard-response,8
true,9,1,3,1,true,z,false,false,0.0-2.0-0.30-0.276-3.276,0,0,1,90,false,stim,false,2,1045.9049999989802,0,0,0,89874,WMM1,830019,false,true,907,image-keyboard-response,9
true,9,2,3,0,false,q,true,false,0.0-2.0-0.30-0.277-3.277,0,0,1,68,false,stim,false,0,835.3299999999581,0,1,2,89874,WMM1,832364,false,false,910,image-keyboard-response,10
true,9,0,3,0,true,q,false,true,0.0-2.0-0.30-0.278-3.278,0,0,1,81,false,stim,false,0,669.0049999997718,0,1,2,89874,WMM1,834548,false,false,913,image-keyboard-response,11
true,9,1,3,1,true,z,false,true,0.0-2.0-0.31-0.279-3.279,0,0,1,90,false,stim,false,2,809.2749999995576,0,0,0,89874,WMM1,836867,false,false,916,image-keyboard-response,12
true,9,1,3,1,true,z,false,true,0.0-2.0-0.31-0.280-3.280,0,0,1,90,false,stim,false,2,511.80500000016764,0,0,0,89874,WMM1,838891,false,false,919,image-keyboard-response,13
true,9,2,3,2,true,d,false,true,0.0-2.0-0.31-0.281-3.281,0,0,1,68,false,stim,false,1,1179.9400000000605,0,0,1,89874,WMM1,841586,false,false,922,image-keyboard-response,14
true,9,0,3,1,false,z,true,true,0.0-2.0-0.31-0.282-3.282,0,0,1,81,false,stim,false,2,907.9050000000279,0,0,0,89874,WMM1,844009,false,true,925,image-keyboard-response,15
true,9,2,3,0,false,q,true,false,0.0-2.0-0.31-0.283-3.283,0,0,1,68,false,stim,false,0,898.2799999994459,0,1,2,89874,WMM1,846419,false,false,928,image-keyboard-response,16
true,9,1,3,0,false,q,true,false,0.0-2.0-0.31-0.284-3.284,0,0,1,90,false,stim,false,0,814.229999999865,0,1,2,89874,WMM1,848748,false,false,931,image-keyboard-response,17
true,9,0,3,0,true,q,false,true,0.0-2.0-0.31-0.285-3.285,0,0,1,81,false,stim,false,0,483.1549999999115,0,1,2,89874,WMM1,850739,false,false,934,image-keyboard-response,18
true,9,1,3,2,false,d,false,false,0.0-2.0-0.31-0.286-3.286,0,0,1,90,false,stim,true,1,883.3149999991292,0,0,1,89874,WMM1,853139,false,false,937,image-keyboard-response,19
true,9,2,3,2,true,d,false,true,0.0-2.0-0.31-0.287-3.287,0,0,1,68,false,stim,false,1,455.16000000131316,0,0,1,89874,WMM1,855104,false,false,940,image-keyboard-response,20
true,9,1,3,1,true,z,false,true,0.0-2.0-0.32-0.288-3.288,0,0,1,90,false,stim,false,2,685.4600000005448,0,0,0,89874,WMM1,857307,false,false,943,image-keyboard-response,21
true,9,0,3,0,true,q,false,true,0.0-2.0-0.32-0.289-3.289,0,0,1,81,false,stim,false,0,1028.6900000009919,0,1,2,89874,WMM1,859843,false,false,946,image-keyboard-response,22
true,9,1,3,1,true,z,false,true,0.0-2.0-0.32-0.290-3.290,0,0,1,90,false,stim,false,2,814.0149999998976,0,0,0,89874,WMM1,862170,false,false,949,image-keyboard-response,23
true,9,0,3,0,true,q,false,true,0.0-2.0-0.32-0.291-3.291,0,0,1,81,false,stim,false,0,687.9649999991525,0,1,2,89874,WMM1,864371,false,false,952,image-keyboard-response,24
true,9,2,3,2,true,d,false,true,0.0-2.0-0.32-0.292-3.292,0,0,1,68,false,stim,false,1,635.9599999996135,0,0,1,89874,WMM1,866522,false,false,955,image-keyboard-response,25
true,9,0,3,0,true,q,false,true,0.0-2.0-0.32-0.293-3.293,0,0,1,81,false,stim,false,0,980.5749999996042,0,0,2,89874,WMM1,869018,false,false,958,image-keyboard-response,26
true,9,2,3,2,true,d,false,true,0.0-2.0-0.32-0.294-3.294,0,0,1,68,false,stim,false,1,889.0900000005495,0,0,1,89874,WMM1,871415,false,false,961,image-keyboard-response,27
true,9,1,3,1,true,z,false,true,0.0-2.0-0.32-0.295-3.295,0,0,1,90,false,stim,false,2,560.5749999996042,0,0,0,89874,WMM1,873490,false,false,964,image-keyboard-response,28
true,9,0,3,2,false,d,true,false,0.0-2.0-0.32-0.296-3.296,0,0,1,81,false,stim,false,1,988.9699999984587,0,0,1,89874,WMM1,875995,false,false,967,image-keyboard-response,29
true,9,0,3,0,true,q,false,true,0.0-2.0-0.33-0.297-3.297,0,0,1,81,false,stim,false,0,946.9000000007218,0,0,2,89874,WMM1,878453,false,false,970,image-keyboard-response,30
true,9,1,3,1,true,z,false,false,0.0-2.0-0.33-0.298-3.298,0,0,1,90,false,stim,false,2,604.8000000009779,0,0,0,89874,WMM1,880570,false,true,973,image-keyboard-response,31
true,9,2,3,2,true,d,false,true,0.0-2.0-0.33-0.299-3.299,0,0,1,68,false,stim,false,1,1044.7800000001444,0,0,1,89874,WMM1,883130,false,false,976,image-keyboard-response,32
true,9,2,3,2,true,d,false,true,0.0-2.0-0.33-0.300-3.300,0,0,1,68,false,stim,false,1,573.0650000004098,0,0,1,89874,WMM1,885218,false,false,979,image-keyboard-response,33
true,9,2,3,2,true,d,false,true,0.0-2.0-0.33-0.301-3.301,0,0,1,68,false,stim,false,1,469.47999999974854,0,0,1,89874,WMM1,887202,false,false,982,image-keyboard-response,34
true,9,0,3,1,false,z,true,false,0.0-2.0-0.33-0.302-3.302,0,0,1,81,false,stim,false,2,706.5350000011967,0,0,0,89874,WMM1,889425,false,false,985,image-keyboard-response,35
true,10,0,4,1,false,z,false,false,0.0-2.0-0.33-0.303-3.303,0,0,0,81,true,stim,true,0,886.77000000095,0,0,2,89874,WMM1,891826,false,false,988,image-keyboard-response,1
true,10,2,4,1,false,z,true,false,0.0-2.0-0.33-0.304-3.304,0,0,0,68,false,stim,false,0,598.8450000004377,0,0,2,89874,WMM1,893937,false,false,991,image-keyboard-response,2
true,10,1,4,0,false,q,false,true,0.0-2.0-0.33-0.305-3.305,0,0,0,90,false,stim,true,1,1099.2499999993015,0,0,0,89874,WMM1,896545,false,true,994,image-keyboard-response,3
true,10,2,4,0,false,q,false,false,0.0-2.0-0.34-0.306-3.306,0,0,0,68,false,stim,true,2,949.2300000002142,0,0,1,89874,WMM1,899010,false,false,997,image-keyboard-response,4
true,10,1,4,1,true,z,false,true,0.0-2.0-0.34-0.307-3.307,0,0,0,90,false,stim,false,0,891.8899999989662,0,0,2,89874,WMM1,901417,false,false,1000,image-keyboard-response,5
true,10,1,4,0,false,q,true,false,0.0-2.0-0.34-0.308-3.308,0,0,0,90,false,stim,false,2,907.6599999989849,0,0,1,89874,WMM1,903841,false,false,1003,image-keyboard-response,6
true,10,1,4,1,true,z,false,true,0.0-2.0-0.34-0.309-3.309,0,0,0,90,false,stim,false,0,620.9849999996368,0,0,2,89874,WMM1,905970,false,false,1006,image-keyboard-response,7
true,10,1,4,0,false,q,false,false,0.0-2.0-0.34-0.310-3.310,0,0,0,90,false,stim,true,1,432.0049999988405,0,0,0,89874,WMM1,907913,false,false,1009,image-keyboard-response,8
true,10,1,4,1,true,z,false,true,0.0-2.0-0.34-0.311-3.311,0,0,0,90,false,stim,false,0,611.8349999996135,0,0,2,89874,WMM1,910041,false,false,1012,image-keyboard-response,9
true,10,0,4,0,true,q,false,true,0.0-2.0-0.34-0.312-3.312,0,0,0,81,false,stim,false,1,674.5499999998137,0,0,0,89874,WMM1,912224,false,false,1015,image-keyboard-response,10
true,10,0,4,0,true,q,false,true,0.0-2.0-0.34-0.313-3.313,0,0,0,81,false,stim,false,2,589.6899999988964,0,0,1,89874,WMM1,914321,false,false,1018,image-keyboard-response,11
true,10,0,4,0,true,q,false,false,0.0-2.0-0.34-0.314-3.314,0,0,0,81,false,stim,false,1,666.7550000001211,0,0,0,89874,WMM1,916498,false,true,1021,image-keyboard-response,12
true,10,2,4,0,false,q,true,false,0.0-2.0-0.35-0.315-3.315,0,0,0,68,false,stim,false,1,1163.2699999990873,0,0,0,89874,WMM1,919175,false,false,1024,image-keyboard-response,13
true,10,0,4,0,true,q,false,true,0.0-2.0-0.35-0.316-3.316,0,0,0,81,false,stim,false,2,798.0600000009872,0,0,1,89874,WMM1,921489,false,false,1027,image-keyboard-response,14
true,10,1,4,0,false,q,false,false,0.0-2.0-0.35-0.317-3.317,0,0,0,90,false,stim,true,1,743.7650000010617,0,0,0,89874,WMM1,923743,false,false,1030,image-keyboard-response,15
true,10,0,4,0,true,q,false,true,0.0-2.0-0.35-0.318-3.318,0,0,0,81,false,stim,false,1,689.5000000003492,0,0,0,89874,WMM1,925942,false,false,1033,image-keyboard-response,16
true,10,0,4,0,true,q,false,true,0.0-2.0-0.35-0.319-3.319,0,0,0,81,false,stim,false,2,534.7750000000233,0,0,1,89874,WMM1,927992,false,false,1036,image-keyboard-response,17
true,10,0,4,0,true,q,false,true,0.0-2.0-0.35-0.320-3.320,0,0,0,81,false,stim,false,2,415.75500000000466,0,0,1,89874,WMM1,929921,false,false,1039,image-keyboard-response,18
true,10,1,4,1,true,z,false,true,0.0-2.0-0.35-0.321-3.321,0,0,0,90,false,stim,false,0,752.4499999999534,0,0,2,89874,WMM1,932184,false,false,1042,image-keyboard-response,19
true,10,1,4,1,true,z,false,true,0.0-2.0-0.35-0.322-3.322,0,0,0,90,false,stim,false,0,520.1450000003679,0,0,2,89874,WMM1,934217,false,false,1045,image-keyboard-response,20
true,10,1,4,1,true,z,false,true,0.0-2.0-0.35-0.323-3.323,0,0,0,90,false,stim,false,0,412.6150000010384,0,0,2,89874,WMM1,936144,false,false,1048,image-keyboard-response,21
true,10,1,4,1,true,z,false,true,0.0-2.0-0.36-0.324-3.324,0,0,0,90,false,stim,false,0,405.09000000020023,0,0,2,89874,WMM1,938064,false,false,1051,image-keyboard-response,22
true,10,1,4,1,true,z,false,true,0.0-2.0-0.36-0.325-3.325,0,0,0,90,false,stim,false,0,403.49000000057276,0,0,2,89874,WMM1,939984,false,false,1054,image-keyboard-response,23
true,10,1,4,1,true,z,false,true,0.0-2.0-0.36-0.326-3.326,0,0,0,90,false,stim,false,0,422.8050000000512,0,0,2,89874,WMM1,941926,false,false,1057,image-keyboard-response,24
true,10,0,4,0,true,q,false,true,0.0-2.0-0.36-0.327-3.327,0,0,0,81,false,stim,false,1,747.009999999078,0,0,0,89874,WMM1,944184,false,false,1060,image-keyboard-response,25
true,10,0,4,0,true,q,false,true,0.0-2.0-0.36-0.328-3.328,0,0,0,81,false,stim,false,1,413.9199999989942,0,0,0,89874,WMM1,946109,false,false,1063,image-keyboard-response,26
true,10,0,4,0,true,q,false,false,0.0-2.0-0.36-0.329-3.329,0,0,0,81,false,stim,false,1,397.9999999993015,0,0,0,89874,WMM1,948023,false,true,1066,image-keyboard-response,27
true,10,1,4,0,false,q,true,false,0.0-2.0-0.36-0.330-3.330,0,0,0,90,false,stim,false,2,563.0650000002934,0,0,1,89874,WMM1,950103,false,false,1069,image-keyboard-response,28
true,10,2,4,0,false,q,false,false,0.0-2.0-0.36-0.331-3.331,0,0,0,68,false,stim,true,2,675.2500000002328,0,0,1,89874,WMM1,952294,false,false,1072,image-keyboard-response,29
true,10,1,4,0,false,q,true,false,0.0-2.0-0.36-0.332-3.332,0,0,0,90,false,stim,false,2,639.4399999990128,0,0,1,89874,WMM1,954448,false,false,1075,image-keyboard-response,30
true,10,0,4,1,false,z,false,false,0.0-2.0-0.37-0.333-3.333,0,0,0,81,false,stim,true,0,1021.9050000014249,0,0,2,89874,WMM1,956983,false,false,1078,image-keyboard-response,31
true,10,1,4,1,true,z,false,true,0.0-2.0-0.37-0.334-3.334,0,0,0,90,false,stim,false,0,409.0550000000512,0,0,2,89874,WMM1,958904,false,false,1081,image-keyboard-response,32
true,10,0,4,0,true,q,false,true,0.0-2.0-0.37-0.335-3.335,0,0,0,81,false,stim,false,1,805.5549999990035,0,0,0,89874,WMM1,961226,false,false,1084,image-keyboard-response,33
true,10,0,4,0,true,q,false,true,0.0-2.0-0.37-0.336-3.336,0,0,0,81,false,stim,false,2,402.1850000008708,0,0,1,89874,WMM1,963141,false,false,1087,image-keyboard-response,34
true,10,0,4,0,true,q,false,true,0.0-2.0-0.37-0.337-3.337,0,0,0,81,false,stim,false,2,390.32000000053085,0,0,1,89874,WMM1,965047,false,false,1090,image-keyboard-response,35
true,11,0,2,1,false,z,false,false,0.0-2.0-0.37-0.338-3.338,0,0,0,81,true,stim,true,0,340.4049999989802,0,0,1,89874,WMM1,966903,false,false,1093,image-keyboard-response,1
true,11,1,2,0,false,q,false,false,0.0-2.0-0.37-0.339-3.339,0,0,0,90,false,stim,true,1,607.2750000002561,0,0,2,89874,WMM1,969023,false,false,1096,image-keyboard-response,2
true,11,0,2,2,false,d,false,false,0.0-2.0-0.37-0.340-3.340,0,0,0,81,false,stim,true,0,776.6949999986682,0,0,0,89874,WMM1,971311,false,false,1099,image-keyboard-response,3
true,11,2,2,2,true,d,false,true,0.0-2.0-0.37-0.341-3.341,0,0,0,68,false,stim,false,0,722.2949999995762,0,0,0,89874,WMM1,973551,false,false,1102,image-keyboard-response,4
true,11,1,2,0,false,q,false,false,0.0-2.0-0.38-0.342-3.342,0,0,0,90,false,stim,true,1,814.9799999991665,0,0,2,89874,WMM1,975875,false,false,1105,image-keyboard-response,5
true,11,2,2,0,false,q,true,false,0.0-2.0-0.38-0.343-3.343,0,0,0,68,false,stim,false,1,681.7149999988033,0,0,2,89874,WMM1,978071,false,false,1108,image-keyboard-response,6
true,11,2,2,1,false,z,true,false,0.0-2.0-0.38-0.344-3.344,0,0,0,68,false,stim,false,0,897.6899999998277,0,0,1,89874,WMM1,980478,false,false,1111,image-keyboard-response,7
true,11,0,2,0,true,q,false,true,0.0-2.0-0.38-0.345-3.345,0,0,0,81,false,stim,false,1,716.6149999992922,0,0,2,89874,WMM1,982710,false,false,1114,image-keyboard-response,8
true,11,0,2,1,false,z,false,false,0.0-2.0-0.38-0.346-3.346,0,0,0,81,false,stim,true,0,730.6399999997811,0,0,1,89874,WMM1,984953,false,false,1117,image-keyboard-response,9
true,11,2,2,2,true,d,false,true,0.0-2.0-0.38-0.347-3.347,0,0,0,68,false,stim,false,0,593.985000001383,0,0,0,89874,WMM1,987063,false,false,1120,image-keyboard-response,10
true,11,2,2,2,true,d,false,true,0.0-2.0-0.38-0.348-3.348,0,0,0,68,false,stim,false,0,564.6749999995809,0,0,0,89874,WMM1,989135,false,false,1123,image-keyboard-response,11
true,11,1,2,1,true,z,false,true,0.0-2.0-0.38-0.349-3.349,0,0,0,90,false,stim,false,0,768.4200000003912,0,0,1,89874,WMM1,991414,false,false,1126,image-keyboard-response,12
true,11,2,2,2,true,d,false,true,0.0-2.0-0.38-0.350-3.350,0,0,0,68,false,stim,false,0,740.9000000007218,0,0,0,89874,WMM1,993671,false,false,1129,image-keyboard-response,13
true,11,1,2,1,true,z,false,false,0.0-2.0-0.39-0.351-3.351,0,0,0,90,false,stim,false,0,596.2749999999069,0,0,1,89874,WMM1,995782,false,true,1132,image-keyboard-response,14
true,11,2,2,2,true,d,false,true,0.0-2.0-0.39-0.352-3.352,0,0,0,68,false,stim,false,0,797.3399999991525,0,0,0,89874,WMM1,998092,false,false,1135,image-keyboard-response,15
true,11,2,2,2,true,d,false,true,0.0-2.0-0.39-0.353-3.353,0,0,0,68,false,stim,false,0,581.2150000002002,0,0,0,89874,WMM1,1000190,false,false,1138,image-keyboard-response,16
true,11,2,2,2,true,d,false,true,0.0-2.0-0.39-0.354-3.354,0,0,0,68,false,stim,false,0,529.5099999983795,0,0,0,89874,WMM1,1002230,false,false,1141,image-keyboard-response,17
true,11,0,2,1,false,z,false,false,0.0-2.0-0.39-0.355-3.355,0,0,0,81,false,stim,true,0,807.4600000000792,0,0,1,89874,WMM1,1004553,false,false,1144,image-keyboard-response,18
true,11,0,2,0,true,q,false,true,0.0-2.0-0.39-0.356-3.356,0,0,0,81,false,stim,false,1,1065.3149999999441,0,0,2,89874,WMM1,1007133,false,false,1147,image-keyboard-response,19
true,11,1,2,1,true,z,false,true,0.0-2.0-0.39-0.357-3.357,0,0,0,90,false,stim,false,0,989.5950000009034,0,0,1,89874,WMM1,1009637,false,false,1150,image-keyboard-response,20
true,11,0,2,0,true,q,false,true,0.0-2.0-0.39-0.358-3.358,0,0,0,81,false,stim,false,1,864.439999999362,0,0,2,89874,WMM1,1012014,false,false,1153,image-keyboard-response,21
true,11,0,2,0,true,q,false,true,0.0-2.0-0.39-0.359-3.359,0,0,0,81,false,stim,false,1,480.2949999993434,0,0,2,89874,WMM1,1014006,false,false,1156,image-keyboard-response,22
true,11,0,2,0,true,q,false,true,0.0-2.0-0.40-0.360-3.360,0,0,0,81,false,stim,false,1,428.26500000047963,0,0,2,89874,WMM1,1015949,false,false,1159,image-keyboard-response,23
true,11,0,2,0,true,q,false,true,0.0-2.0-0.40-0.361-3.361,0,0,0,81,false,stim,false,1,364.54500000039116,0,0,2,89874,WMM1,1017827,false,false,1162,image-keyboard-response,24
true,11,2,2,2,true,d,false,true,0.0-2.0-0.40-0.362-3.362,0,0,0,68,false,stim,false,0,724.6550000000279,0,0,0,89874,WMM1,1020070,false,false,1165,image-keyboard-response,25
true,11,0,2,1,false,z,false,false,0.0-2.0-0.40-0.363-3.363,0,0,0,81,false,stim,true,0,773.0400000000373,0,0,1,89874,WMM1,1022358,false,false,1168,image-keyboard-response,26
true,11,2,2,2,true,d,false,true,0.0-2.0-0.40-0.364-3.364,0,0,0,68,false,stim,false,0,1101.124999999185,0,0,0,89874,WMM1,1024973,false,false,1171,image-keyboard-response,27
true,11,0,2,0,true,q,false,true,0.0-2.0-0.40-0.365-3.365,0,0,0,81,false,stim,false,1,558.849999999511,0,0,2,89874,WMM1,1027045,false,false,1174,image-keyboard-response,28
true,11,1,2,1,true,z,false,true,0.0-2.0-0.40-0.366-3.366,0,0,0,90,false,stim,false,0,477.34499999927357,0,0,1,89874,WMM1,1029037,false,false,1177,image-keyboard-response,29
true,11,2,2,2,true,d,false,true,0.0-2.0-0.40-0.367-3.367,0,0,0,68,false,stim,false,0,849.8899999995483,0,0,0,89874,WMM1,1031406,false,false,1180,image-keyboard-response,30
true,11,0,2,1,false,z,false,false,0.0-2.0-0.40-0.368-3.368,0,0,0,81,false,stim,true,0,271.6450000007171,0,0,1,89874,WMM1,1033193,false,false,1183,image-keyboard-response,31
true,11,1,2,1,true,z,false,true,0.0-2.0-0.41-0.369-3.369,0,0,0,90,false,stim,false,0,456.6250000006985,0,0,1,89874,WMM1,1035165,false,false,1186,image-keyboard-response,32
true,11,0,2,0,true,q,false,true,0.0-2.0-0.41-0.370-3.370,0,0,0,81,false,stim,false,1,469.6699999985285,0,0,2,89874,WMM1,1037151,false,false,1189,image-keyboard-response,33
true,11,2,2,1,false,z,true,true,0.0-2.0-0.41-0.371-3.371,0,0,0,68,false,stim,false,0,361.49499999918044,0,0,1,89874,WMM1,1039028,false,true,1192,image-keyboard-response,34
true,11,2,2,2,true,d,false,false,0.0-2.0-0.41-0.372-3.372,0,0,0,68,false,stim,false,0,584.7850000008475,0,0,0,89874,WMM1,1041125,false,true,1195,image-keyboard-response,35
true,11,0,2,0,true,q,false,true,0.0-2.0-0.41-0.373-3.373,0,0,0,81,false,stim,false,1,862.5100000008242,0,0,2,89874,WMM1,1043500,false,false,1198,image-keyboard-response,36
true,11,0,2,2,false,d,false,false,0.0-2.0-0.41-0.374-3.374,0,0,0,81,false,stim,true,0,910.5899999993853,0,0,0,89874,WMM1,1045932,false,false,1201,image-keyboard-response,37
true,11,1,2,2,false,d,true,false,0.0-2.0-0.41-0.375-3.375,0,0,0,90,false,stim,false,0,500.3300000006566,0,0,0,89874,WMM1,1047946,false,false,1204,image-keyboard-response,38
true,11,0,2,0,true,q,false,true,0.0-2.0-0.41-0.376-3.376,0,0,0,81,false,stim,false,1,688.7049999986775,0,0,2,89874,WMM1,1050148,false,false,1207,image-keyboard-response,39
true,11,2,2,1,false,z,true,false,0.0-2.0-0.41-0.377-3.377,0,0,0,68,false,stim,false,0,385.93000000040047,0,0,1,89874,WMM1,1052047,false,false,1210,image-keyboard-response,40
true,11,1,2,1,true,z,false,true,0.0-2.0-0.42-0.378-3.378,0,0,0,90,false,stim,false,0,807.1350000009406,0,0,1,89874,WMM1,1054373,false,false,1213,image-keyboard-response,41
true,11,1,2,1,true,z,false,true,0.0-2.0-0.42-0.379-3.379,0,0,0,90,false,stim,false,0,482.85499999835156,0,0,1,89874,WMM1,1056372,false,false,1216,image-keyboard-response,42
true,11,0,2,0,true,q,false,false,0.0-2.0-0.42-0.380-3.380,0,0,0,81,false,stim,false,1,548.4349999988917,0,0,2,89874,WMM1,1058436,false,true,1219,image-keyboard-response,43
true,11,2,2,2,true,d,false,true,0.0-2.0-0.42-0.381-3.381,0,0,0,68,false,stim,false,0,943.4749999998603,0,0,0,89874,WMM1,1060890,false,false,1222,image-keyboard-response,44
true,11,2,2,2,true,d,false,true,0.0-2.0-0.42-0.382-3.382,0,0,0,68,false,stim,false,0,542.0050000010524,0,0,0,89874,WMM1,1062947,false,false,1225,image-keyboard-response,45
true,11,2,2,0,false,q,true,false,0.0-2.0-0.42-0.383-3.383,0,0,0,68,false,stim,false,1,909.0800000012387,0,0,2,89874,WMM1,1065372,false,false,1228,image-keyboard-response,46
true,11,1,2,1,true,z,false,true,0.0-2.0-0.42-0.384-3.384,0,0,0,90,false,stim,false,0,404.4549999998417,0,0,1,89874,WMM1,1067292,false,false,1231,image-keyboard-response,47
true,11,1,2,0,false,q,false,false,0.0-2.0-0.42-0.385-3.385,0,0,0,90,false,stim,true,1,440.15500000026077,0,0,2,89874,WMM1,1069244,false,false,1234,image-keyboard-response,48
true,11,0,2,2,false,d,false,false,0.0-2.0-0.42-0.386-3.386,0,0,0,81,false,stim,true,0,1046.8349999992643,0,1,0,89874,WMM1,1071803,false,false,1237,image-keyboard-response,49
true,11,2,2,2,true,d,false,true,0.0-2.0-0.43-0.387-3.387,0,0,0,68,false,stim,false,0,450.51499999850057,0,1,0,89874,WMM1,1073764,false,false,1240,image-keyboard-response,50
true,11,0,2,0,true,q,false,false,0.0-2.0-0.43-0.388-3.388,0,0,0,81,false,stim,false,1,714.6799999992363,0,0,2,89874,WMM1,1075995,false,true,1243,image-keyboard-response,51
true,11,2,2,2,true,d,false,true,0.0-2.0-0.43-0.389-3.389,0,0,0,68,false,stim,false,0,768.279999998631,0,1,0,89874,WMM1,1078276,false,false,1246,image-keyboard-response,52
true,11,1,2,1,true,z,false,true,0.0-2.0-0.43-0.390-3.390,0,0,0,90,false,stim,false,0,420.4950000003446,0,0,1,89874,WMM1,1080211,false,false,1249,image-keyboard-response,53
true,11,1,2,0,false,q,false,false,0.0-2.0-0.43-0.391-3.391,0,0,0,90,false,stim,true,1,523.0550000015646,0,0,2,89874,WMM1,1082251,false,false,1252,image-keyboard-response,54
true,11,2,2,2,true,d,false,true,0.0-2.0-0.43-0.392-3.392,0,0,0,68,false,stim,false,0,739.8250000004191,0,1,0,89874,WMM1,1084499,false,false,1255,image-keyboard-response,55
true,12,0,3,2,false,d,true,false,0.0-2.0-0.43-0.393-3.393,1,0,0,81,true,stim,false,1,782.9250000012107,0,0,1,89874,WMM1,1086787,false,false,1258,image-keyboard-response,1
true,12,1,3,2,false,d,false,false,0.0-2.0-0.43-0.394-3.394,1,0,0,90,false,stim,true,1,652.3899999991991,0,0,1,89874,WMM1,1088955,false,false,1261,image-keyboard-response,2
true,12,2,3,1,false,z,true,false,0.0-2.0-0.43-0.395-3.395,1,0,0,68,false,stim,false,0,785.0699999998324,0,0,2,89874,WMM1,1091251,false,false,1264,image-keyboard-response,3
true,12,2,3,2,true,d,false,true,0.0-2.0-0.44-0.396-3.396,1,0,0,68,false,stim,false,2,688.0250000013039,0,1,0,89874,WMM1,1093451,false,false,1267,image-keyboard-response,4
true,12,0,3,2,false,d,true,false,0.0-2.0-0.44-0.397-3.397,1,0,0,81,false,stim,false,1,715.809999999823,0,0,1,89874,WMM1,1095683,false,false,1270,image-keyboard-response,5
true,12,1,3,2,false,d,false,false,0.0-2.0-0.44-0.398-3.398,1,0,0,90,false,stim,true,1,449.7300000002142,0,0,1,89874,WMM1,1097648,false,false,1273,image-keyboard-response,6
true,12,2,3,1,false,z,true,false,0.0-2.0-0.44-0.399-3.399,1,0,0,68,false,stim,false,0,805.4149999988731,0,0,2,89874,WMM1,1099971,false,false,1276,image-keyboard-response,7
true,12,2,3,2,true,d,false,true,0.0-2.0-0.44-0.400-3.400,1,0,0,68,false,stim,false,1,582.660000000149,0,0,1,89874,WMM1,1102066,false,false,1279,image-keyboard-response,8
true,12,2,3,2,true,d,false,true,0.0-2.0-0.44-0.401-3.401,1,0,0,68,false,stim,false,2,693.1149999999907,0,1,0,89874,WMM1,1104275,false,false,1282,image-keyboard-response,9
true,12,2,3,2,true,d,false,true,0.0-2.0-0.44-0.402-3.402,1,0,0,68,false,stim,false,2,561.60499999905,0,1,0,89874,WMM1,1106353,false,false,1285,image-keyboard-response,10
true,12,1,3,1,true,z,false,true,0.0-2.0-0.44-0.403-3.403,1,0,0,90,false,stim,false,0,1092.0900000000838,0,0,2,89874,WMM1,1108955,false,false,1288,image-keyboard-response,11
true,12,1,3,1,true,z,false,true,0.0-2.0-0.44-0.404-3.404,1,0,0,90,false,stim,false,0,749.0249999992084,0,0,2,89874,WMM1,1111211,false,false,1291,image-keyboard-response,12
true,12,2,3,2,true,d,false,true,0.0-2.0-0.45-0.405-3.405,1,0,0,68,false,stim,false,2,636.6349999988452,0,1,0,89874,WMM1,1113364,false,false,1294,image-keyboard-response,13
true,12,1,3,1,true,z,false,true,0.0-2.0-0.45-0.406-3.406,1,0,0,90,false,stim,false,0,490.69500000053085,0,0,2,89874,WMM1,1115363,false,false,1297,image-keyboard-response,14
true,12,2,3,2,true,d,false,true,0.0-2.0-0.45-0.407-3.407,1,0,0,68,false,stim,false,2,671.1649999998044,0,1,0,89874,WMM1,1117546,false,false,1300,image-keyboard-response,15
true,12,2,3,2,true,d,false,true,0.0-2.0-0.45-0.408-3.408,1,0,0,68,false,stim,false,1,1133.8199999991339,0,0,1,89874,WMM1,1120202,false,false,1303,image-keyboard-response,16
true,12,2,3,2,true,d,false,true,0.0-2.0-0.45-0.409-3.409,1,0,0,68,false,stim,false,1,529.8049999999348,0,0,1,89874,WMM1,1122242,false,false,1306,image-keyboard-response,17
true,12,1,3,1,true,z,false,true,0.0-2.0-0.45-0.410-3.410,1,0,0,90,false,stim,false,0,498.4800000002142,0,0,2,89874,WMM1,1124250,false,false,1309,image-keyboard-response,18
true,12,1,3,1,true,z,false,true,0.0-2.0-0.45-0.411-3.411,1,0,0,90,false,stim,false,0,1517.3200000007637,0,0,2,89874,WMM1,1127275,false,false,1312,image-keyboard-response,19
true,12,2,3,2,true,d,false,true,0.0-2.0-0.45-0.412-3.412,1,0,0,68,false,stim,false,2,843.0000000006985,0,1,0,89874,WMM1,1129634,false,false,1315,image-keyboard-response,20
true,12,1,3,2,false,d,false,false,0.0-2.0-0.45-0.413-3.413,1,0,0,90,false,stim,true,1,549.4350000007544,0,0,1,89874,WMM1,1131698,false,false,1318,image-keyboard-response,21
true,12,1,3,1,true,z,false,true,0.0-2.0-0.46-0.414-3.414,1,0,0,90,false,stim,false,0,617.3249999992549,0,0,2,89874,WMM1,1133826,false,false,1321,image-keyboard-response,22
true,12,2,3,1,false,z,true,false,0.0-2.0-0.46-0.415-3.415,1,0,0,68,false,stim,false,0,470.28500000131316,0,0,2,89874,WMM1,1135810,false,false,1324,image-keyboard-response,23
true,12,2,3,2,true,d,false,true,0.0-2.0-0.46-0.416-3.416,1,0,0,68,false,stim,false,2,674.4799999997485,0,0,0,89874,WMM1,1138001,false,false,1327,image-keyboard-response,24
true,12,2,3,2,true,d,false,true,0.0-2.0-0.46-0.417-3.417,1,0,0,68,false,stim,false,2,571.0049999998882,0,0,0,89874,WMM1,1140081,false,false,1330,image-keyboard-response,25
true,12,1,3,2,false,d,false,false,0.0-2.0-0.46-0.418-3.418,1,0,0,90,false,stim,true,1,647.874999998603,0,0,1,89874,WMM1,1142239,false,false,1333,image-keyboard-response,26
true,12,2,3,2,true,d,false,true,0.0-2.0-0.46-0.419-3.419,1,0,0,68,false,stim,false,1,725.8899999996647,0,0,1,89874,WMM1,1144481,false,false,1336,image-keyboard-response,27
true,12,2,3,2,true,d,false,true,0.0-2.0-0.46-0.420-3.420,1,0,0,68,false,stim,false,2,704.4949999998789,0,0,0,89874,WMM1,1146697,false,false,1339,image-keyboard-response,28
true,12,2,3,2,true,d,false,true,0.0-2.0-0.46-0.421-3.421,1,0,0,68,false,stim,false,1,652.1100000008009,0,0,1,89874,WMM1,1148865,false,false,1342,image-keyboard-response,29
true,12,1,3,1,true,z,false,true,0.0-2.0-0.46-0.422-3.422,1,0,0,90,false,stim,false,0,820.4249999998137,0,0,2,89874,WMM1,1151201,false,false,1345,image-keyboard-response,30
true,13,2,1,1,false,z,false,false,0.0-2.0-0.47-0.423-3.423,0,0,0,68,true,stim,true,2,554.519999999553,0,0,0,89874,WMM1,1153267,false,false,1348,image-keyboard-response,1
true,13,2,1,1,false,z,false,false,0.0-2.0-0.47-0.424-3.424,0,0,0,68,false,stim,true,2,647.6999999997206,0,0,1,89874,WMM1,1155425,false,false,1351,image-keyboard-response,2
true,13,1,1,2,false,d,false,false,0.0-2.0-0.47-0.425-3.425,0,0,0,90,false,stim,true,1,390.40000000037253,0,0,2,89874,WMM1,1157328,false,false,1354,image-keyboard-response,3
true,13,0,1,2,false,d,true,false,0.0-2.0-0.47-0.426-3.426,0,0,0,81,false,stim,false,1,600.9249999986496,0,0,2,89874,WMM1,1159441,false,false,1357,image-keyboard-response,4
true,13,0,1,1,false,z,true,false,0.0-2.0-0.47-0.427-3.427,0,0,0,81,false,stim,false,2,906.4949999991804,0,0,0,89874,WMM1,1161859,false,false,1360,image-keyboard-response,5
true,13,1,1,1,true,z,false,true,0.0-2.0-0.47-0.428-3.428,0,0,0,90,false,stim,false,2,886.1350000007078,0,0,0,89874,WMM1,1164260,false,false,1363,image-keyboard-response,6
true,13,2,1,2,true,d,false,true,0.0-2.0-0.47-0.429-3.429,0,0,0,68,false,stim,false,1,776.3949999990873,0,0,2,89874,WMM1,1166553,false,false,1366,image-keyboard-response,7
true,13,0,1,1,false,z,true,false,0.0-2.0-0.47-0.430-3.430,0,0,0,81,false,stim,false,2,861.4799999995157,0,0,1,89874,WMM1,1168927,false,false,1369,image-keyboard-response,8
true,13,1,1,1,true,z,false,true,0.0-2.0-0.47-0.431-3.431,0,0,0,90,false,stim,false,2,498.5749999997206,0,0,1,89874,WMM1,1170940,false,false,1372,image-keyboard-response,9
true,13,1,1,1,true,z,false,true,0.0-2.0-0.48-0.432-3.432,0,0,0,90,false,stim,false,2,361.46999999997206,0,0,1,89874,WMM1,1172817,false,false,1375,image-keyboard-response,10
true,13,1,1,2,false,d,false,false,0.0-2.0-0.48-0.433-3.433,0,0,0,90,false,stim,true,1,390.9800000002142,0,0,2,89874,WMM1,1174721,false,false,1378,image-keyboard-response,11
true,13,1,1,1,true,z,false,true,0.0-2.0-0.48-0.434-3.434,0,0,0,90,false,stim,false,2,479.00499999918975,0,0,1,89874,WMM1,1176712,false,false,1381,image-keyboard-response,12
true,13,1,1,1,true,z,false,true,0.0-2.0-0.48-0.435-3.435,0,0,0,90,false,stim,false,2,610.7049999991432,0,0,0,89874,WMM1,1178840,false,false,1384,image-keyboard-response,13
true,13,1,1,1,true,z,false,true,0.0-2.0-0.48-0.436-3.436,0,0,0,90,false,stim,false,2,471.8599999996368,0,0,0,89874,WMM1,1180824,false,false,1387,image-keyboard-response,14
true,13,2,1,2,true,d,false,true,0.0-2.0-0.48-0.437-3.437,0,0,0,68,false,stim,false,1,633.0449999987613,0,0,2,89874,WMM1,1182968,false,false,1390,image-keyboard-response,15
true,13,1,1,1,true,z,false,true,0.0-2.0-0.48-0.438-3.438,0,0,0,90,false,stim,false,2,510.999999998603,0,0,1,89874,WMM1,1184991,false,false,1393,image-keyboard-response,16
true,13,1,1,1,true,z,false,true,0.0-2.0-0.48-0.439-3.439,0,0,0,90,false,stim,false,2,413.00000000046566,0,0,0,89874,WMM1,1186920,false,false,1396,image-keyboard-response,17
true,13,2,1,2,true,d,false,true,0.0-2.0-0.48-0.440-3.440,0,0,0,68,false,stim,false,1,479.6499999992084,0,0,2,89874,WMM1,1188912,false,false,1399,image-keyboard-response,18
true,13,1,1,1,true,z,false,true,0.0-2.0-0.49-0.441-3.441,0,0,0,90,false,stim,false,2,704.3200000007637,0,0,1,89874,WMM1,1191136,false,false,1402,image-keyboard-response,19
true,13,1,1,1,true,z,false,false,0.0-2.0-0.49-0.442-3.442,0,0,0,90,false,stim,false,2,453.3850000007078,0,0,0,89874,WMM1,1193104,false,true,1405,image-keyboard-response,20
true,13,0,1,1,false,z,true,true,0.0-2.0-0.49-0.443-3.443,0,0,0,81,false,stim,false,2,828.7450000008103,0,1,0,89874,WMM1,1195447,false,true,1408,image-keyboard-response,21
true,13,1,1,1,true,z,false,true,0.0-2.0-0.49-0.444-3.444,0,0,0,90,false,stim,false,2,700.9699999997392,0,1,1,89874,WMM1,1197663,false,false,1411,image-keyboard-response,22
true,13,0,1,1,false,z,true,false,0.0-2.0-0.49-0.445-3.445,0,0,0,81,false,stim,false,2,671.1299999989569,0,1,0,89874,WMM1,1199847,false,false,1414,image-keyboard-response,23
true,13,2,1,2,true,d,false,true,0.0-2.0-0.49-0.446-3.446,0,0,0,68,false,stim,false,1,1123.3750000009313,0,1,2,89874,WMM1,1202481,false,false,1417,image-keyboard-response,24
true,13,1,1,1,true,z,false,false,0.0-2.0-0.49-0.447-3.447,0,0,0,90,false,stim,false,2,659.1699999989942,0,1,1,89874,WMM1,1204654,false,true,1420,image-keyboard-response,25
true,13,2,1,2,true,d,false,true,0.0-2.0-0.49-0.448-3.448,0,0,0,68,false,stim,false,1,789.464999999851,0,1,2,89874,WMM1,1206959,false,false,1423,image-keyboard-response,26
true,13,2,1,2,true,d,false,false,0.0-2.0-0.49-0.449-3.449,0,0,0,68,false,stim,false,1,563.355000000447,0,1,2,89874,WMM1,1209031,false,true,1426,image-keyboard-response,27
true,13,1,1,1,true,z,false,true,0.0-2.0-0.50-0.450-3.450,0,0,0,90,false,stim,false,2,788.5949999999721,0,1,0,89874,WMM1,1211335,false,false,1429,image-keyboard-response,28
true,13,0,1,1,false,z,true,false,0.0-2.0-0.50-0.451-3.451,0,0,0,81,false,stim,false,2,903.8200000014622,0,1,1,89874,WMM1,1213752,false,false,1432,image-keyboard-response,29
true,13,2,1,2,true,d,false,true,0.0-2.0-0.50-0.452-3.452,0,0,0,68,false,stim,false,1,662.7650000010617,0,1,2,89874,WMM1,1215927,false,false,1435,image-keyboard-response,30
true,14,1,0,2,false,d,true,false,0.0-2.0-0.50-0.453-3.453,1,1,1,90,true,stim,false,2,803.7450000010431,0,1,2,89874,WMM1,1338991,false,false,1558,image-keyboard-response,1
true,14,2,0,2,true,d,false,true,0.0-2.0-0.50-0.454-3.454,1,1,1,68,false,stim,false,2,620.080000000773,0,1,2,89874,WMM1,1341119,false,false,1561,image-keyboard-response,2
true,14,1,0,1,true,z,false,true,0.0-2.0-0.50-0.455-3.455,1,1,1,90,false,stim,false,1,641.1349999997765,0,1,0,89874,WMM1,1343277,false,false,1564,image-keyboard-response,3
true,14,0,0,1,false,z,true,false,0.0-2.0-0.50-0.456-3.456,1,1,1,81,false,stim,false,1,397.8449999995064,0,1,1,89874,WMM1,1345190,false,false,1567,image-keyboard-response,4
true,14,1,0,1,true,z,false,true,0.0-2.0-0.50-0.457-3.457,1,1,1,90,false,stim,false,1,1042.4250000014435,0,1,0,89874,WMM1,1347750,false,false,1570,image-keyboard-response,5
true,14,1,0,1,true,z,false,true,0.0-2.0-0.50-0.458-3.458,1,1,1,90,false,stim,false,1,532.365000000922,0,1,1,89874,WMM1,1349793,false,false,1573,image-keyboard-response,6
true,14,1,0,1,true,z,false,true,0.0-2.0-0.51-0.459-3.459,1,1,1,90,false,stim,false,1,475.46499999961816,0,1,0,89874,WMM1,1351785,false,false,1576,image-keyboard-response,7
true,14,1,0,1,true,z,false,true,0.0-2.0-0.51-0.460-3.460,1,1,1,90,false,stim,false,1,416.13499999954365,0,1,0,89874,WMM1,1353718,false,false,1579,image-keyboard-response,8
true,14,1,0,1,true,z,false,true,0.0-2.0-0.51-0.461-3.461,1,1,1,90,false,stim,false,1,397.84999999939464,0,1,1,89874,WMM1,1355630,false,false,1582,image-keyboard-response,9
true,14,1,0,1,true,z,false,true,0.0-2.0-0.51-0.462-3.462,1,1,1,90,false,stim,false,1,588.6149999988265,0,1,1,89874,WMM1,1357736,false,false,1585,image-keyboard-response,10
true,14,2,0,2,true,d,false,true,0.0-2.0-0.51-0.463-3.463,1,1,1,68,false,stim,false,2,474.7650000010617,0,1,2,89874,WMM1,1359726,false,false,1588,image-keyboard-response,11
true,14,1,0,1,true,z,false,true,0.0-2.0-0.51-0.464-3.464,1,1,1,90,false,stim,false,1,526.1450000016484,0,1,0,89874,WMM1,1361769,false,false,1591,image-keyboard-response,12
true,14,2,0,2,true,d,false,false,0.0-2.0-0.51-0.465-3.465,1,1,1,68,false,stim,false,2,597.695000000298,0,1,2,89874,WMM1,1363878,false,true,1594,image-keyboard-response,13
true,14,1,0,2,false,d,true,false,0.0-2.0-0.51-0.466-3.466,1,1,1,90,false,stim,false,2,667.6800000004005,0,1,2,89874,WMM1,1366061,false,false,1597,image-keyboard-response,14
true,14,1,0,1,true,z,false,true,0.0-2.0-0.51-0.467-3.467,1,1,1,90,false,stim,false,1,728.3200000000652,0,1,1,89874,WMM1,1368301,false,false,1600,image-keyboard-response,15
true,14,0,0,2,false,d,true,false,0.0-2.0-0.52-0.468-3.468,1,1,1,81,false,stim,false,2,928.9599999992643,0,1,2,89874,WMM1,1370755,false,false,1603,image-keyboard-response,16
true,14,1,0,1,true,z,false,true,0.0-2.0-0.52-0.469-3.469,1,1,1,90,false,stim,false,1,795.7050000003073,0,1,0,89874,WMM1,1373062,false,false,1606,image-keyboard-response,17
true,14,1,0,1,true,z,false,true,0.0-2.0-0.52-0.470-3.470,1,1,1,90,false,stim,false,1,828.4949999998789,0,1,1,89874,WMM1,1375405,false,false,1609,image-keyboard-response,18
true,14,2,0,2,true,d,false,true,0.0-2.0-0.52-0.471-3.471,1,1,1,68,false,stim,false,2,451.6999999997206,0,1,2,89874,WMM1,1377368,false,false,1612,image-keyboard-response,19
true,14,2,0,2,true,d,false,true,0.0-2.0-0.52-0.472-3.472,1,1,1,68,false,stim,false,2,470.8549999995157,0,1,2,89874,WMM1,1379349,false,false,1615,image-keyboard-response,20
true,14,1,0,1,true,z,false,true,0.0-2.0-0.52-0.473-3.473,1,1,1,90,false,stim,false,1,769.3950000011828,0,0,1,89874,WMM1,1381637,false,false,1618,image-keyboard-response,21
true,14,1,0,1,true,z,false,true,0.0-2.0-0.52-0.474-3.474,1,1,1,90,false,stim,false,1,332.59499999997206,0,0,0,89874,WMM1,1383485,false,false,1621,image-keyboard-response,22
true,14,1,0,1,true,z,false,true,0.0-2.0-0.52-0.475-3.475,1,1,1,90,false,stim,false,1,409.61000000080094,0,0,0,89874,WMM1,1385412,false,false,1624,image-keyboard-response,23
true,14,1,0,1,true,z,false,true,0.0-2.0-0.52-0.476-3.476,1,1,1,90,false,stim,false,1,565.9349999986589,0,0,1,89874,WMM1,1387492,false,false,1627,image-keyboard-response,24
true,14,1,0,1,true,z,false,true,0.0-2.0-0.53-0.477-3.477,1,1,1,90,false,stim,false,1,551.1049999988172,0,0,0,89874,WMM1,1389556,false,false,1630,image-keyboard-response,25
true,14,1,0,1,true,z,false,true,0.0-2.0-0.53-0.478-3.478,1,1,1,90,false,stim,false,1,553.4250000000466,0,0,0,89874,WMM1,1391621,false,false,1633,image-keyboard-response,26
true,14,1,0,1,true,z,false,true,0.0-2.0-0.53-0.479-3.479,1,1,1,90,false,stim,false,1,583.225000000326,0,0,1,89874,WMM1,1393717,false,false,1636,image-keyboard-response,27
true,14,2,0,2,true,d,false,true,0.0-2.0-0.53-0.480-3.480,1,1,1,68,false,stim,false,2,506.36500000115484,0,1,2,89874,WMM1,1395733,false,false,1639,image-keyboard-response,28
true,14,1,0,1,true,z,false,true,0.0-2.0-0.53-0.481-3.481,1,1,1,90,false,stim,false,1,493.2549999994226,0,0,1,89874,WMM1,1397740,false,false,1642,image-keyboard-response,29
true,14,1,0,1,true,z,false,true,0.0-2.0-0.53-0.482-3.482,1,1,1,90,false,stim,false,1,376.5800000000745,0,0,1,89874,WMM1,1399629,false,false,1645,image-keyboard-response,30
true,15,1,3,0,false,q,false,false,0.0-2.0-0.53-0.483-3.483,0,0,1,90,true,stim,true,1,656.4650000000838,0,0,0,89874,WMM1,1401796,false,false,1648,image-keyboard-response,1
true,15,2,3,2,true,d,false,true,0.0-2.0-0.53-0.484-3.484,0,0,1,68,false,stim,false,2,629.6149999997579,0,1,2,89874,WMM1,1403940,false,false,1651,image-keyboard-response,2
true,15,1,3,2,false,d,true,false,0.0-2.0-0.53-0.485-3.485,0,0,1,90,false,stim,false,2,555.3600000003353,0,1,2,89874,WMM1,1406012,false,false,1654,image-keyboard-response,3
true,15,2,3,2,true,d,false,true,0.0-2.0-0.54-0.486-3.486,0,0,1,68,false,stim,false,2,469.8500000012573,0,1,2,89874,WMM1,1407996,false,false,1657,image-keyboard-response,4
true,15,2,3,2,true,d,false,false,0.0-2.0-0.54-0.487-3.487,0,0,1,68,false,stim,false,2,489.8499999998603,0,1,2,89874,WMM1,1410003,false,true,1660,image-keyboard-response,5
true,15,1,3,0,false,q,false,true,0.0-2.0-0.54-0.488-3.488,0,0,1,90,false,stim,true,1,476.1450000007171,0,0,0,89874,WMM1,1411996,false,true,1663,image-keyboard-response,6
true,15,1,3,2,false,d,false,false,0.0-2.0-0.54-0.489-3.489,0,0,1,90,false,stim,true,1,769.5949999997392,0,0,1,89874,WMM1,1414284,false,false,1666,image-keyboard-response,7
true,15,0,3,2,false,d,true,false,0.0-2.0-0.54-0.490-3.490,0,0,1,81,false,stim,false,1,661.1900000006426,0,0,1,89874,WMM1,1416455,false,false,1669,image-keyboard-response,8
true,15,1,3,0,false,q,false,false,0.0-2.0-0.54-0.491-3.491,0,0,1,90,false,stim,true,1,765.6600000010803,0,0,0,89874,WMM1,1418732,false,false,1672,image-keyboard-response,9
true,15,0,3,2,false,d,true,false,0.0-2.0-0.54-0.492-3.492,0,0,1,81,false,stim,false,1,772.8349999997299,0,0,1,89874,WMM1,1421014,false,false,1675,image-keyboard-response,10
true,15,1,3,0,false,q,false,false,0.0-2.0-0.54-0.493-3.493,0,0,1,90,false,stim,true,1,584.1200000015087,0,0,0,89874,WMM1,1423108,false,false,1678,image-keyboard-response,11
true,15,2,3,2,true,d,false,true,0.0-2.0-0.54-0.494-3.494,0,0,1,68,false,stim,false,2,538.9350000005215,0,1,2,89874,WMM1,1425155,false,false,1681,image-keyboard-response,12
true,15,2,3,2,true,d,false,true,0.0-2.0-0.55-0.495-3.495,0,0,1,68,false,stim,false,1,539.2499999997672,0,0,1,89874,WMM1,1427211,false,false,1684,image-keyboard-response,13
true,15,2,3,0,false,q,true,true,0.0-2.0-0.55-0.496-3.496,0,0,1,68,false,stim,false,1,446.6799999990035,0,0,0,89874,WMM1,1429171,false,true,1687,image-keyboard-response,14
true,15,2,3,2,true,d,false,true,0.0-2.0-0.55-0.497-3.497,0,0,1,68,false,stim,false,1,305.70000000088476,0,0,1,89874,WMM1,1430995,false,false,1690,image-keyboard-response,15
true,15,2,3,2,true,d,false,true,0.0-2.0-0.55-0.498-3.498,0,0,1,68,false,stim,false,2,511.15000000037253,0,1,2,89874,WMM1,1433019,false,false,1693,image-keyboard-response,16
true,15,2,3,0,false,q,true,false,0.0-2.0-0.55-0.499-3.499,0,0,1,68,false,stim,false,1,292.23999999882653,0,0,0,89874,WMM1,1434827,false,false,1696,image-keyboard-response,17
true,15,2,3,2,true,d,false,true,0.0-2.0-0.55-0.500-3.500,0,0,1,68,false,stim,false,2,501.3250000011176,0,1,2,89874,WMM1,1436843,false,false,1699,image-keyboard-response,18
true,15,1,3,0,false,q,false,false,0.0-2.0-0.55-0.501-3.501,0,0,1,90,false,stim,true,1,592.755000001518,0,0,0,89874,WMM1,1438963,false,false,1702,image-keyboard-response,19
true,15,2,3,2,true,d,false,true,0.0-2.0-0.55-0.502-3.502,0,0,1,68,false,stim,false,2,475.5900000000838,0,1,2,89874,WMM1,1440954,false,false,1705,image-keyboard-response,20
true,15,0,3,2,false,d,true,false,0.0-2.0-0.55-0.503-3.503,0,0,1,81,false,stim,false,1,376.044999999227,0,0,1,89874,WMM1,1442843,false,false,1708,image-keyboard-response,21
true,15,2,3,0,false,q,true,false,0.0-2.0-0.56-0.504-3.504,0,0,1,68,false,stim,false,1,397.1999999994878,0,0,0,89874,WMM1,1444758,false,false,1711,image-keyboard-response,22
true,15,1,3,0,false,q,false,false,0.0-2.0-0.56-0.505-3.505,0,0,1,90,false,stim,true,1,771.3650000006892,0,0,0,89874,WMM1,1447050,false,false,1714,image-keyboard-response,23
true,15,2,3,2,true,d,false,true,0.0-2.0-0.56-0.506-3.506,0,0,1,68,false,stim,false,1,575.0500000012107,0,0,1,89874,WMM1,1449142,false,false,1717,image-keyboard-response,24
true,15,2,3,2,true,d,false,true,0.0-2.0-0.56-0.507-3.507,0,0,1,68,false,stim,false,2,505.6050000002142,0,1,2,89874,WMM1,1451163,false,false,1720,image-keyboard-response,25
true,15,2,3,2,true,d,false,true,0.0-2.0-0.56-0.508-3.508,0,0,1,68,false,stim,false,2,476.2799999990966,0,1,2,89874,WMM1,1453150,false,false,1723,image-keyboard-response,26
true,15,2,3,2,true,d,false,false,0.0-2.0-0.56-0.509-3.509,0,0,1,68,false,stim,false,2,548.1199999996461,0,1,2,89874,WMM1,1455216,false,true,1726,image-keyboard-response,27
true,15,2,3,2,true,d,false,true,0.0-2.0-0.56-0.510-3.510,0,0,1,68,false,stim,false,1,551.5899999991525,0,0,1,89874,WMM1,1457284,false,false,1729,image-keyboard-response,28
true,15,2,3,2,true,d,false,true,0.0-2.0-0.56-0.511-3.511,0,0,1,68,false,stim,false,1,658.4099999999162,0,0,1,89874,WMM1,1459458,false,false,1732,image-keyboard-response,29
true,15,1,3,0,false,q,false,false,0.0-2.0-0.56-0.512-3.512,0,0,1,90,false,stim,true,1,798.7499999997672,0,0,0,89874,WMM1,1461767,false,false,1735,image-keyboard-response,30
true,15,0,3,0,true,q,false,true,0.0-2.0-0.57-0.513-3.513,0,0,1,81,false,stim,false,1,627.205000000773,0,0,0,89874,WMM1,1463909,false,false,1738,image-keyboard-response,31
true,15,2,3,2,true,d,false,false,0.0-2.0-0.57-0.514-3.514,0,0,1,68,false,stim,false,2,505.0050000010524,0,1,2,89874,WMM1,1465930,false,true,1741,image-keyboard-response,32
true,15,2,3,2,true,d,false,true,0.0-2.0-0.57-0.515-3.515,0,0,1,68,false,stim,false,1,818.9550000005402,0,0,1,89874,WMM1,1468266,false,false,1744,image-keyboard-response,33
true,15,0,3,2,false,d,true,false,0.0-2.0-0.57-0.516-3.516,0,0,1,81,false,stim,false,2,723.6600000013132,0,1,2,89874,WMM1,1470506,false,false,1747,image-keyboard-response,34
true,15,0,3,0,true,q,false,true,0.0-2.0-0.57-0.517-3.517,0,0,1,81,false,stim,false,1,387.44999999855645,0,0,0,89874,WMM1,1472405,false,false,1750,image-keyboard-response,35
true,15,2,3,2,true,d,false,true,0.0-2.0-0.57-0.518-3.518,0,0,1,68,false,stim,false,1,748.4399999992456,0,0,1,89874,WMM1,1474674,false,false,1753,image-keyboard-response,36
true,15,1,3,2,false,d,true,false,0.0-2.0-0.57-0.519-3.519,0,0,1,90,false,stim,false,2,515.4299999994691,0,1,2,89874,WMM1,1476706,false,false,1756,image-keyboard-response,37
true,15,0,3,0,true,q,false,true,0.0-2.0-0.57-0.520-3.520,0,0,1,81,false,stim,false,1,1118.5850000001956,0,0,0,89874,WMM1,1479341,false,false,1759,image-keyboard-response,38
true,15,2,3,2,true,d,false,true,0.0-2.0-0.57-0.521-3.521,0,0,1,68,false,stim,false,1,680.070000000298,0,0,1,89874,WMM1,1481538,false,false,1762,image-keyboard-response,39
true,15,2,3,2,true,d,false,true,0.0-2.0-0.58-0.522-3.522,0,0,1,68,false,stim,false,2,642.9600000011269,0,1,2,89874,WMM1,1483698,false,false,1765,image-keyboard-response,40
true,15,2,3,2,true,d,false,true,0.0-2.0-0.58-0.523-3.523,0,0,1,68,false,stim,false,1,611.3000000005122,0,0,1,89874,WMM1,1485825,false,false,1768,image-keyboard-response,41
true,15,2,3,2,true,d,false,true,0.0-2.0-0.58-0.524-3.524,0,0,1,68,false,stim,false,1,491.2100000001956,0,0,1,89874,WMM1,1487833,false,false,1771,image-keyboard-response,42
true,15,0,3,0,true,q,false,true,0.0-2.0-0.58-0.525-3.525,0,0,1,81,false,stim,false,1,462.760000000475,0,0,0,89874,WMM1,1489809,false,false,1774,image-keyboard-response,43
true,15,2,3,2,true,d,false,true,0.0-2.0-0.58-0.526-3.526,0,0,1,68,false,stim,false,2,531.5899999986868,0,1,2,89874,WMM1,1491857,false,false,1777,image-keyboard-response,44
true,15,0,3,0,true,q,false,true,0.0-2.0-0.58-0.527-3.527,0,0,1,81,false,stim,false,1,451.11499999975786,0,0,0,89874,WMM1,1493825,false,false,1780,image-keyboard-response,45
true,15,2,3,0,false,q,true,false,0.0-2.0-0.58-0.528-3.528,0,0,1,68,false,stim,false,1,625.8699999998789,0,0,0,89874,WMM1,1495969,false,false,1783,image-keyboard-response,46
true,15,2,3,2,true,d,false,true,0.0-2.0-0.58-0.529-3.529,0,0,1,68,false,stim,false,1,963.8099999993574,0,0,1,89874,WMM1,1498449,false,false,1786,image-keyboard-response,47
true,15,2,3,2,true,d,false,true,0.0-2.0-0.58-0.530-3.530,0,0,1,68,false,stim,false,2,606.3650000016205,0,0,2,89874,WMM1,1500569,false,false,1789,image-keyboard-response,48
true,15,2,3,2,true,d,false,true,0.0-2.0-0.59-0.531-3.531,0,0,1,68,false,stim,false,1,954.7300000011455,0,0,1,89874,WMM1,1503032,false,false,1792,image-keyboard-response,49
true,15,2,3,2,true,d,false,true,0.0-2.0-0.59-0.532-3.532,0,0,1,68,false,stim,false,1,465.9700000011362,0,0,1,89874,WMM1,1505008,false,false,1795,image-keyboard-response,50
true,15,0,3,0,true,q,false,true,0.0-2.0-0.59-0.533-3.533,0,0,1,81,false,stim,false,1,533.0250000006054,0,0,0,89874,WMM1,1507057,false,false,1798,image-keyboard-response,51
true,15,2,3,2,true,d,false,true,0.0-2.0-0.59-0.534-3.534,0,0,1,68,false,stim,false,2,563.0349999992177,0,0,2,89874,WMM1,1509150,false,false,1801,image-keyboard-response,52
true,15,2,3,2,true,d,false,true,0.0-2.0-0.59-0.535-3.535,0,0,1,68,false,stim,false,1,646.1000000000931,0,0,1,89874,WMM1,1511313,false,false,1804,image-keyboard-response,53
true,15,0,3,0,true,q,false,true,0.0-2.0-0.59-0.536-3.536,0,0,1,81,false,stim,false,1,542.410000000149,0,0,0,89874,WMM1,1513369,false,false,1807,image-keyboard-response,54
true,16,2,2,0,false,q,false,false,0.0-2.0-0.59-0.537-3.537,0,0,0,68,true,stim,true,2,515.6799999985378,0,0,2,89874,WMM1,1515400,false,false,1810,image-keyboard-response,1
true,16,2,2,0,false,q,false,false,0.0-2.0-0.59-0.538-3.538,0,0,0,68,false,stim,true,2,432.33500000135973,0,0,2,89874,WMM1,1517345,false,false,1813,image-keyboard-response,2
true,16,0,2,2,false,d,false,false,0.0-2.0-0.59-0.539-3.539,0,0,0,81,false,stim,true,0,596.6550000011921,0,0,0,89874,WMM1,1519456,false,false,1816,image-keyboard-response,3
true,16,0,2,0,true,q,false,true,0.0-2.0-0.60-0.540-3.540,0,0,0,81,false,stim,false,2,801.7150000014808,0,0,2,89874,WMM1,1521769,false,false,1819,image-keyboard-response,4
true,16,2,2,1,false,z,false,false,0.0-2.0-0.60-0.541-3.541,0,0,0,68,false,stim,true,2,696.1449999997858,0,0,1,89874,WMM1,1523979,false,false,1822,image-keyboard-response,5
true,16,1,2,2,false,d,true,false,0.0-2.0-0.60-0.542-3.542,0,0,0,90,false,stim,false,0,756.690000000177,0,0,0,89874,WMM1,1526248,false,false,1825,image-keyboard-response,6
true,16,0,2,1,false,z,true,true,0.0-2.0-0.60-0.543-3.543,0,0,0,81,false,stim,false,2,467.2300000002142,0,0,1,89874,WMM1,1528227,false,true,1828,image-keyboard-response,7
true,16,0,2,2,false,d,false,false,0.0-2.0-0.60-0.544-3.544,0,0,0,81,false,stim,true,0,551.2500000004657,0,0,0,89874,WMM1,1530296,false,false,1831,image-keyboard-response,8
true,16,0,2,0,true,q,false,true,0.0-2.0-0.60-0.545-3.545,0,0,0,81,false,stim,false,2,453.9049999983981,0,0,2,89874,WMM1,1532267,false,false,1834,image-keyboard-response,9
true,16,0,2,0,true,q,false,true,0.0-2.0-0.60-0.546-3.546,0,0,0,81,false,stim,false,2,568.670000000624,0,0,2,89874,WMM1,1534350,false,false,1837,image-keyboard-response,10
true,16,0,2,1,false,z,true,false,0.0-2.0-0.60-0.547-3.547,0,0,0,81,false,stim,false,2,482.28000000002794,0,0,1,89874,WMM1,1536344,false,false,1840,image-keyboard-response,11
true,16,1,2,2,false,d,true,false,0.0-2.0-0.60-0.548-3.548,0,0,0,90,false,stim,false,0,1282.6149999999907,0,0,0,89874,WMM1,1539138,false,false,1843,image-keyboard-response,12
true,16,2,2,2,true,d,false,true,0.0-2.0-0.61-0.549-3.549,0,0,0,68,false,stim,false,0,476.01000000024214,0,0,0,89874,WMM1,1541127,false,false,1846,image-keyboard-response,13
true,16,0,2,1,false,z,true,false,0.0-2.0-0.61-0.550-3.550,0,0,0,81,false,stim,false,2,666.0050000010524,0,0,1,89874,WMM1,1543312,false,false,1849,image-keyboard-response,14
true,16,1,2,1,true,z,false,true,0.0-2.0-0.61-0.551-3.551,0,0,0,90,false,stim,false,2,717.7950000003912,0,0,1,89874,WMM1,1545543,false,false,1852,image-keyboard-response,15
true,16,0,2,0,true,q,false,true,0.0-2.0-0.61-0.552-3.552,0,0,0,81,false,stim,false,2,741.9700000009034,0,0,2,89874,WMM1,1547802,false,false,1855,image-keyboard-response,16
true,16,1,2,0,false,q,true,false,0.0-2.0-0.61-0.553-3.553,0,0,0,90,false,stim,false,2,497.0450000001583,0,0,2,89874,WMM1,1549815,false,false,1858,image-keyboard-response,17
true,16,2,2,2,true,d,false,true,0.0-2.0-0.61-0.554-3.554,0,0,0,68,false,stim,false,0,736.8050000004005,0,0,0,89874,WMM1,1552063,false,false,1861,image-keyboard-response,18
true,16,2,2,2,true,d,false,false,0.0-2.0-0.61-0.555-3.555,0,0,0,68,false,stim,false,0,676.500000001397,0,0,0,89874,WMM1,1554255,false,true,1864,image-keyboard-response,19
true,16,0,2,0,true,q,false,true,0.0-2.0-0.61-0.556-3.556,0,0,0,81,false,stim,false,2,842.0050000003539,0,0,2,89874,WMM1,1556614,false,false,1867,image-keyboard-response,20
true,16,1,2,1,true,z,false,true,0.0-2.0-0.61-0.557-3.557,0,0,0,90,false,stim,false,2,460.16000000038184,0,0,1,89874,WMM1,1558586,false,false,1870,image-keyboard-response,21
true,16,0,2,0,true,q,false,true,0.0-2.0-0.62-0.558-3.558,0,0,0,81,false,stim,false,2,746.8100000005215,0,0,2,89874,WMM1,1560855,false,false,1873,image-keyboard-response,22
true,16,0,2,0,true,q,false,true,0.0-2.0-0.62-0.559-3.559,0,0,0,81,false,stim,false,2,515.7249999991618,0,0,2,89874,WMM1,1562887,false,false,1876,image-keyboard-response,23
true,16,1,2,1,true,z,false,true,0.0-2.0-0.62-0.560-3.560,0,0,0,90,false,stim,false,2,930.7449999996461,0,0,1,89874,WMM1,1565335,false,false,1879,image-keyboard-response,24
true,16,1,2,1,true,z,false,true,0.0-2.0-0.62-0.561-3.561,0,0,0,90,false,stim,false,2,467.3100000000559,0,0,1,89874,WMM1,1567314,false,false,1882,image-keyboard-response,25
true,16,2,2,2,true,d,false,true,0.0-2.0-0.62-0.562-3.562,0,0,0,68,false,stim,false,0,730.6849999986589,0,0,0,89874,WMM1,1569559,false,false,1885,image-keyboard-response,26
true,16,0,2,0,true,q,false,true,0.0-2.0-0.62-0.563-3.563,0,0,0,81,false,stim,false,2,711.2999999988824,0,0,2,89874,WMM1,1571783,false,false,1888,image-keyboard-response,27
true,16,2,2,2,true,d,false,true,0.0-2.0-0.62-0.564-3.564,0,0,0,68,false,stim,false,0,689.0100000000093,0,0,0,89874,WMM1,1573982,false,false,1891,image-keyboard-response,28
true,16,2,2,2,true,d,false,true,0.0-2.0-0.62-0.565-3.565,0,0,0,68,false,stim,false,0,616.785000000149,0,0,0,89874,WMM1,1576114,false,false,1894,image-keyboard-response,29
true,16,0,2,1,false,z,true,false,0.0-2.0-0.62-0.566-3.566,0,0,0,81,false,stim,false,2,644.0800000000745,0,0,1,89874,WMM1,1578270,false,false,1897,image-keyboard-response,30
true,16,0,2,0,true,q,false,true,0.0-2.0-0.63-0.567-3.567,0,0,0,81,false,stim,false,2,578.5099999993108,0,0,2,89874,WMM1,1580365,false,false,1900,image-keyboard-response,31
true,16,0,2,0,true,q,false,true,0.0-2.0-0.63-0.568-3.568,0,0,0,81,false,stim,false,2,636.8700000001118,0,0,2,89874,WMM1,1582529,false,false,1903,image-keyboard-response,32
true,17,1,1,1,true,z,false,true,0.0-2.0-0.63-0.569-3.569,0,0,0,90,true,stim,false,2,633.2700000002515,0,0,0,89874,WMM1,1584678,false,false,1906,image-keyboard-response,1
true,17,1,1,1,true,z,false,true,0.0-2.0-0.63-0.570-3.570,0,0,0,90,false,stim,false,2,471.534999998752,0,0,0,89874,WMM1,1586662,false,false,1909,image-keyboard-response,2
true,17,0,1,0,true,q,false,true,0.0-2.0-0.63-0.571-3.571,0,0,0,81,false,stim,false,1,809.9349999993574,0,0,1,89874,WMM1,1588990,false,false,1912,image-keyboard-response,3
true,17,0,1,0,true,q,false,true,0.0-2.0-0.63-0.572-3.572,0,0,0,81,false,stim,false,1,559.2500000002328,0,0,1,89874,WMM1,1591062,false,false,1915,image-keyboard-response,4
true,17,0,1,0,true,q,false,true,0.0-2.0-0.63-0.573-3.573,0,0,0,81,false,stim,false,1,462.2400000006892,0,0,1,89874,WMM1,1593038,false,false,1918,image-keyboard-response,5
true,17,1,1,1,true,z,false,true,0.0-2.0-0.63-0.574-3.574,0,0,0,90,false,stim,false,2,690.1199999991804,0,0,0,89874,WMM1,1595246,false,false,1921,image-keyboard-response,6
true,17,0,1,2,false,d,false,false,0.0-2.0-0.63-0.575-3.575,0,0,0,81,false,stim,true,0,422.1450000004843,0,0,2,89874,WMM1,1597181,false,false,1924,image-keyboard-response,7
true,17,2,1,2,true,d,false,true,0.0-2.0-0.64-0.576-3.576,0,0,0,68,false,stim,false,0,507.68000000040047,0,0,2,89874,WMM1,1599205,false,false,1927,image-keyboard-response,8
true,17,2,1,2,true,d,false,true,0.0-2.0-0.64-0.577-3.577,0,0,0,68,false,stim,false,0,653.3450000006706,0,0,2,89874,WMM1,1601371,false,false,1930,image-keyboard-response,9
true,17,0,1,1,false,z,true,false,0.0-2.0-0.64-0.578-3.578,0,0,0,81,false,stim,false,2,705.9249999984168,0,0,0,89874,WMM1,1603593,false,false,1933,image-keyboard-response,10
true,17,0,1,0,true,q,false,true,0.0-2.0-0.64-0.579-3.579,0,0,0,81,false,stim,false,1,899.9949999996461,0,0,1,89874,WMM1,1606006,false,false,1936,image-keyboard-response,11
true,17,1,1,0,false,q,false,false,0.0-2.0-0.64-0.580-3.580,0,0,0,90,false,stim,true,1,654.0749999985565,0,0,1,89874,WMM1,1608173,false,false,1939,image-keyboard-response,12
true,17,1,1,1,true,z,false,true,0.0-2.0-0.64-0.581-3.581,0,0,0,90,false,stim,false,2,1104.1549999990966,0,0,0,89874,WMM1,1610791,false,false,1942,image-keyboard-response,13
true,17,1,1,1,true,z,false,true,0.0-2.0-0.64-0.582-3.582,0,0,0,90,false,stim,false,2,492.59999999962747,0,0,0,89874,WMM1,1612797,false,false,1945,image-keyboard-response,14
true,17,2,1,2,true,d,false,true,0.0-2.0-0.64-0.583-3.583,0,0,0,68,false,stim,false,0,811.6749999988824,0,0,2,89874,WMM1,1615125,false,false,1948,image-keyboard-response,15
true,17,0,1,0,true,q,false,true,0.0-2.0-0.64-0.584-3.584,0,0,0,81,false,stim,false,1,619.2300000002142,0,0,1,89874,WMM1,1617261,false,false,1951,image-keyboard-response,16
true,17,0,1,0,true,q,false,true,0.0-2.0-0.65-0.585-3.585,0,0,0,81,false,stim,false,1,562.3400000005495,0,0,1,89874,WMM1,1619341,false,false,1954,image-keyboard-response,17
