answered,blockNum,choice,condition,corResp,correct,correct_response,explo,fb,internal_node_id,isStable_1,isStable_2,isStable_3,key_press,newBlock,part,persev,persevResp,rt,sessNum,stableAS,stimulus,subject,task,time_elapsed,training,trap,trial_index,trial_type,trialsInBlock
true,1,2,0,0,false,q,true,false,0.0-2.0-0.0-0.0-3.0,0,0,0,68,true,stim,false,-1,734.2000000476837,1,0,0,91572,WMM1,150097,false,false,103,image-keyboard-response,1
true,1,2,0,0,false,q,true,false,0.0-2.0-0.0-0.1-3.1,0,0,0,68,false,stim,false,-1,424.5,1,0,0,91572,WMM1,152052,false,false,106,image-keyboard-response,2
true,1,0,0,2,false,d,true,false,0.0-2.0-0.0-0.2-3.2,0,0,0,81,false,stim,false,-1,750.6999998092651,1,0,2,91572,WMM1,154329,false,false,109,image-keyboard-response,3
true,1,2,0,1,false,z,true,true,0.0-2.0-0.0-0.3-3.3,0,0,0,68,false,stim,false,-1,806.7999999523163,1,0,1,91572,WMM1,156666,false,true,112,image-keyboard-response,4
true,1,2,0,1,false,z,true,false,0.0-2.0-0.0-0.4-3.4,0,0,0,68,false,stim,false,-1,573.6000001430511,1,0,1,91572,WMM1,158764,false,false,115,image-keyboard-response,5
true,1,1,0,0,false,q,true,false,0.0-2.0-0.0-0.5-3.5,0,0,0,90,false,stim,false,-1,701.2999999523163,1,0,0,91572,WMM1,160987,false,false,118,image-keyboard-response,6
true,1,1,0,2,false,d,true,false,0.0-2.0-0.0-0.6-3.6,0,0,0,90,false,stim,false,-1,857.2999999523163,1,0,2,91572,WMM1,163359,false,false,121,image-keyboard-response,7
true,1,0,0,2,false,d,true,false,0.0-2.0-0.0-0.7-3.7,0,0,0,81,false,stim,false,-1,733.0999999046326,1,0,2,91572,WMM1,165617,false,false,124,image-keyboard-response,8
true,1,2,0,1,false,z,true,false,0.0-2.0-0.0-0.8-3.8,0,0,0,68,false,stim,false,-1,787.0999999046326,1,0,1,91572,WMM1,167920,false,false,127,image-keyboard-response,9
true,1,2,0,2,true,d,false,true,0.0-2.0-0.1-0.9-3.9,0,0,0,68,false,stim,false,-1,595.2999999523163,1,0,2,91572,WMM1,170042,false,false,130,image-keyboard-response,10
true,1,2,0,2,true,d,false,true,0.0-2.0-0.1-0.10-3.10,0,0,0,68,false,stim,false,-1,479.40000009536743,1,0,2,91572,WMM1,172041,false,false,133,image-keyboard-response,11
true,1,2,0,0,false,q,true,false,0.0-2.0-0.1-0.11-3.11,0,0,0,68,false,stim,false,-1,992.6000001430511,1,0,0,91572,WMM1,174564,false,false,136,image-keyboard-response,12
true,1,1,0,1,true,z,false,true,0.0-2.0-0.1-0.12-3.12,0,0,0,90,false,stim,false,-1,977.8999998569489,1,0,1,91572,WMM1,177067,false,false,139,image-keyboard-response,13
true,1,1,0,1,true,z,false,true,0.0-2.0-0.1-0.13-3.13,0,0,0,90,false,stim,false,-1,556.5999999046326,1,0,1,91572,WMM1,179140,false,false,142,image-keyboard-response,14
true,1,1,0,1,true,z,false,true,0.0-2.0-0.1-0.14-3.14,0,0,0,90,false,stim,false,-1,433.7999999523163,1,0,1,91572,WMM1,181101,false,false,145,image-keyboard-response,15
true,1,2,0,2,true,d,false,true,0.0-2.0-0.1-0.15-3.15,0,0,0,68,false,stim,false,-1,603.4000000953674,1,0,2,91572,WMM1,183220,false,false,148,image-keyboard-response,16
true,1,0,0,0,true,q,false,true,0.0-2.0-0.1-0.16-3.16,0,0,0,81,false,stim,false,-1,985.3999998569489,1,0,0,91572,WMM1,185731,false,false,151,image-keyboard-response,17
true,1,0,0,0,true,q,false,true,0.0-2.0-0.1-0.17-3.17,0,0,0,81,false,stim,false,-1,648.2000000476837,1,0,0,91572,WMM1,187906,false,false,154,image-keyboard-response,18
true,1,0,0,0,true,q,false,true,0.0-2.0-0.2-0.18-3.18,0,0,0,81,false,stim,false,-1,423.5,1,0,0,91572,WMM1,189863,false,false,157,image-keyboard-response,19
true,1,1,0,1,true,z,false,true,0.0-2.0-0.2-0.19-3.19,0,0,0,90,false,stim,false,-1,1079.1999998092651,1,0,1,91572,WMM1,192464,false,false,160,image-keyboard-response,20
true,1,2,0,2,true,d,false,true,0.0-2.0-0.2-0.20-3.20,0,0,0,68,false,stim,false,-1,609.0,1,0,2,91572,WMM1,194593,false,false,163,image-keyboard-response,21
true,1,1,0,1,true,z,false,true,0.0-2.0-0.2-0.21-3.21,0,0,0,90,false,stim,false,-1,648.8999998569489,1,0,1,91572,WMM1,196767,false,false,166,image-keyboard-response,22
true,1,2,0,2,true,d,false,true,0.0-2.0-0.2-0.22-3.22,0,0,0,68,false,stim,false,-1,879.1000001430511,1,0,2,91572,WMM1,199175,false,false,169,image-keyboard-response,23
true,1,0,0,0,true,q,false,true,0.0-2.0-0.2-0.23-3.23,0,0,0,81,false,stim,false,-1,661.5999999046326,1,0,0,91572,WMM1,201357,false,false,172,image-keyboard-response,24
true,1,2,0,2,true,d,false,true,0.0-2.0-0.2-0.24-3.24,0,0,0,68,false,stim,false,-1,634.5,1,0,2,91572,WMM1,203510,false,false,175,image-keyboard-response,25
true,1,1,0,1,true,z,false,true,0.0-2.0-0.2-0.25-3.25,0,0,0,90,false,stim,false,-1,645.7999999523163,1,0,1,91572,WMM1,205674,false,false,178,image-keyboard-response,26
true,1,0,0,0,true,q,false,true,0.0-2.0-0.2-0.26-3.26,0,0,0,81,false,stim,false,-1,1410.5,1,0,0,91572,WMM1,208615,false,false,181,image-keyboard-response,27
true,1,2,0,2,true,d,false,true,0.0-2.0-0.3-0.27-3.27,0,0,0,68,false,stim,false,-1,674.8999998569489,1,0,2,91572,WMM1,210797,false,false,184,image-keyboard-response,28
true,1,2,0,2,true,d,false,true,0.0-2.0-0.3-0.28-3.28,0,0,0,68,false,stim,false,-1,698.0,1,0,2,91572,WMM1,213030,false,false,187,image-keyboard-response,29
true,1,1,0,1,true,z,false,true,0.0-2.0-0.3-0.29-3.29,0,0,0,90,false,stim,false,-1,1438.5,1,0,1,91572,WMM1,216002,false,false,190,image-keyboard-response,30
true,2,0,1,2,false,d,false,false,0.0-2.0-0.3-0.30-3.30,0,0,0,81,true,stim,true,0,1278.7999999523163,1,0,0,91572,WMM1,218805,false,false,193,image-keyboard-response,1
true,2,2,1,1,false,z,false,false,0.0-2.0-0.3-0.31-3.31,0,0,0,68,false,stim,true,2,1267.7999999523163,1,0,2,91572,WMM1,221593,false,false,196,image-keyboard-response,2
true,2,2,1,0,false,q,true,false,0.0-2.0-0.3-0.32-3.32,0,0,0,68,false,stim,false,1,573.0,1,0,1,91572,WMM1,223700,false,false,199,image-keyboard-response,3
true,2,0,1,2,false,d,false,true,0.0-2.0-0.3-0.33-3.33,0,0,0,81,false,stim,true,0,1586.6000001430511,1,0,0,91572,WMM1,226808,false,true,202,image-keyboard-response,4
true,2,1,1,0,false,q,false,true,0.0-2.0-0.3-0.34-3.34,0,0,0,90,false,stim,true,1,882.5999999046326,1,0,1,91572,WMM1,229219,false,true,205,image-keyboard-response,5
true,2,0,1,2,false,d,false,false,0.0-2.0-0.3-0.35-3.35,0,0,0,81,false,stim,true,0,560.2000000476837,1,0,0,91572,WMM1,231307,false,false,208,image-keyboard-response,6
true,2,1,1,0,false,q,false,false,0.0-2.0-0.4-0.36-3.36,0,0,0,90,false,stim,true,1,868.4000000953674,1,0,1,91572,WMM1,233700,false,false,211,image-keyboard-response,7
true,2,1,1,1,true,z,false,true,0.0-2.0-0.4-0.37-3.37,0,0,0,90,false,stim,false,2,1003.7999999523163,1,0,2,91572,WMM1,236231,false,false,214,image-keyboard-response,8
true,2,2,1,0,false,q,true,false,0.0-2.0-0.4-0.38-3.38,0,0,0,68,false,stim,false,1,617.2999999523163,1,0,1,91572,WMM1,238376,false,false,217,image-keyboard-response,9
true,2,2,1,2,true,d,false,true,0.0-2.0-0.4-0.39-3.39,0,0,0,68,false,stim,false,0,967.9000000953674,1,0,0,91572,WMM1,240873,false,false,220,image-keyboard-response,10
true,2,2,1,2,true,d,false,true,0.0-2.0-0.4-0.40-3.40,0,0,0,68,false,stim,false,0,593.9000000953674,1,0,0,91572,WMM1,242997,false,false,223,image-keyboard-response,11
true,2,2,1,2,true,d,false,true,0.0-2.0-0.4-0.41-3.41,0,0,0,68,false,stim,false,0,479.0,1,0,0,91572,WMM1,245001,false,false,226,image-keyboard-response,12
true,2,1,1,1,true,z,false,true,0.0-2.0-0.4-0.42-3.42,0,0,0,90,false,stim,false,2,628.4000000953674,1,0,2,91572,WMM1,247134,false,false,229,image-keyboard-response,13
true,2,1,1,1,true,z,false,true,0.0-2.0-0.4-0.43-3.43,0,0,0,90,false,stim,false,2,557.0,1,0,2,91572,WMM1,249208,false,false,232,image-keyboard-response,14
true,2,0,1,0,true,q,false,true,0.0-2.0-0.4-0.44-3.44,0,0,0,81,false,stim,false,1,1047.5,1,0,1,91572,WMM1,251780,false,false,235,image-keyboard-response,15
true,2,2,1,1,false,z,false,false,0.0-2.0-0.5-0.45-3.45,0,0,0,68,false,stim,true,2,749.7999999523163,1,0,2,91572,WMM1,254046,false,false,238,image-keyboard-response,16
true,2,2,1,2,true,d,false,true,0.0-2.0-0.5-0.46-3.46,0,0,0,68,false,stim,false,0,806.5,1,0,0,91572,WMM1,256385,false,false,241,image-keyboard-response,17
true,2,0,1,0,true,q,false,true,0.0-2.0-0.5-0.47-3.47,0,0,0,81,false,stim,false,1,985.3000001907349,1,0,1,91572,WMM1,258892,false,false,244,image-keyboard-response,18
true,2,2,1,1,false,z,false,false,0.0-2.0-0.5-0.48-3.48,0,0,0,68,false,stim,true,2,861.0999999046326,1,0,2,91572,WMM1,261279,false,false,247,image-keyboard-response,19
true,2,2,1,1,false,z,false,true,0.0-2.0-0.5-0.49-3.49,0,0,0,68,false,stim,true,2,551.5,1,0,2,91572,WMM1,263352,false,true,250,image-keyboard-response,20
true,2,0,1,2,false,d,false,false,0.0-2.0-0.5-0.50-3.50,0,0,0,81,false,stim,true,0,1178.2999999523163,1,0,0,91572,WMM1,266060,false,false,253,image-keyboard-response,21
true,2,0,1,0,true,q,false,true,0.0-2.0-0.5-0.51-3.51,0,0,0,81,false,stim,false,1,1058.8999998569489,1,0,1,91572,WMM1,268641,false,false,256,image-keyboard-response,22
true,2,1,1,2,false,d,true,false,0.0-2.0-0.5-0.52-3.52,0,0,0,90,false,stim,false,0,1069.7000000476837,1,0,0,91572,WMM1,271230,false,false,259,image-keyboard-response,23
true,2,0,1,0,true,q,false,true,0.0-2.0-0.5-0.53-3.53,0,0,0,81,false,stim,false,1,1064.7999999523163,1,0,1,91572,WMM1,273811,false,false,262,image-keyboard-response,24
true,2,2,1,1,false,z,false,false,0.0-2.0-0.6-0.54-3.54,0,0,0,68,false,stim,true,2,846.1000001430511,1,0,2,91572,WMM1,276184,false,false,265,image-keyboard-response,25
true,2,1,1,2,false,d,true,false,0.0-2.0-0.6-0.55-3.55,0,0,0,90,false,stim,false,0,1120.7999999523163,1,0,0,91572,WMM1,278822,false,false,268,image-keyboard-response,26
true,2,1,1,2,false,d,true,false,0.0-2.0-0.6-0.56-3.56,0,0,0,90,false,stim,false,0,535.7999999523163,1,0,0,91572,WMM1,280886,false,false,271,image-keyboard-response,27
true,2,0,1,0,true,q,false,true,0.0-2.0-0.6-0.57-3.57,0,0,0,81,false,stim,false,1,747.7000000476837,1,0,1,91572,WMM1,283163,false,false,274,image-keyboard-response,28
true,2,2,1,1,false,z,false,false,0.0-2.0-0.6-0.58-3.58,0,0,0,68,false,stim,true,2,544.7000000476837,1,0,2,91572,WMM1,285240,false,false,277,image-keyboard-response,29
true,2,2,1,0,false,q,true,true,0.0-2.0-0.6-0.59-3.59,0,0,0,68,false,stim,false,1,590.5,1,0,1,91572,WMM1,287353,false,true,280,image-keyboard-response,30
true,2,0,1,1,false,z,true,false,0.0-2.0-0.6-0.60-3.60,0,0,0,81,false,stim,false,2,587.0,1,0,2,91572,WMM1,289461,false,false,283,image-keyboard-response,31
true,2,2,1,0,false,q,true,false,0.0-2.0-0.6-0.61-3.61,0,0,0,68,false,stim,false,1,1158.0,1,0,1,91572,WMM1,292148,false,false,286,image-keyboard-response,32
true,2,2,1,2,true,d,false,true,0.0-2.0-0.6-0.62-3.62,0,0,0,68,false,stim,false,0,679.0999999046326,1,0,0,91572,WMM1,294352,false,false,289,image-keyboard-response,33
true,2,2,1,1,false,z,false,false,0.0-2.0-0.7-0.63-3.63,0,0,0,68,false,stim,true,2,1079.0,1,0,2,91572,WMM1,296963,false,false,292,image-keyboard-response,34
true,2,2,1,0,false,q,true,false,0.0-2.0-0.7-0.64-3.64,0,0,0,68,false,stim,false,1,639.9000000953674,1,0,1,91572,WMM1,299122,false,false,295,image-keyboard-response,35
true,2,2,1,2,true,d,false,true,0.0-2.0-0.7-0.65-3.65,0,0,0,68,false,stim,false,0,846.3999998569489,1,0,0,91572,WMM1,301493,false,false,298,image-keyboard-response,36
true,2,1,1,0,false,q,false,false,0.0-2.0-0.7-0.66-3.66,0,0,0,90,false,stim,true,1,683.7000000476837,1,0,1,91572,WMM1,303712,false,false,301,image-keyboard-response,37
true,2,0,1,1,false,z,true,false,0.0-2.0-0.7-0.67-3.67,0,0,0,81,false,stim,false,2,828.9000000953674,1,0,2,91572,WMM1,306070,false,false,304,image-keyboard-response,38
true,2,1,1,0,false,q,false,false,0.0-2.0-0.7-0.68-3.68,0,0,0,90,false,stim,true,1,1080.4000000953674,1,0,1,91572,WMM1,308658,false,false,307,image-keyboard-response,39
true,2,2,1,1,false,z,false,true,0.0-2.0-0.7-0.69-3.69,0,0,0,68,false,stim,true,2,1293.5999999046326,1,0,2,91572,WMM1,311484,false,true,310,image-keyboard-response,40
true,2,2,1,2,true,d,false,true,0.0-2.0-0.7-0.70-3.70,0,0,0,68,false,stim,false,0,426.09999990463257,1,0,0,91572,WMM1,313444,false,false,313,image-keyboard-response,41
true,2,2,1,2,true,d,false,true,0.0-2.0-0.7-0.71-3.71,0,0,0,68,false,stim,false,0,826.2000000476837,1,0,0,91572,WMM1,315796,false,false,316,image-keyboard-response,42
true,2,2,1,2,true,d,false,true,0.0-2.0-0.8-0.72-3.72,0,0,0,68,false,stim,false,0,503.09999990463257,1,0,0,91572,WMM1,317820,false,false,319,image-keyboard-response,43
true,2,2,1,2,true,d,false,true,0.0-2.0-0.8-0.73-3.73,0,0,0,68,false,stim,false,0,499.09999990463257,1,0,0,91572,WMM1,319848,false,false,322,image-keyboard-response,44
true,2,2,1,1,false,z,false,false,0.0-2.0-0.8-0.74-3.74,0,0,0,68,false,stim,true,2,763.5,1,0,2,91572,WMM1,322140,false,false,325,image-keyboard-response,45
true,2,2,1,1,false,z,false,false,0.0-2.0-0.8-0.75-3.75,0,0,0,68,false,stim,true,2,795.5,1,0,2,91572,WMM1,324469,false,false,328,image-keyboard-response,46
true,2,2,1,2,true,d,false,true,0.0-2.0-0.8-0.76-3.76,0,0,0,68,false,stim,false,0,767.2999999523163,1,0,0,91572,WMM1,326755,false,false,331,image-keyboard-response,47
true,2,0,1,0,true,q,false,true,0.0-2.0-0.8-0.77-3.77,0,0,0,81,false,stim,false,1,917.7000000476837,1,0,1,91572,WMM1,329204,false,false,334,image-keyboard-response,48
true,2,0,1,0,true,q,false,true,0.0-2.0-0.8-0.78-3.78,0,0,0,81,false,stim,false,1,503.39999985694885,1,0,1,91572,WMM1,331236,false,false,337,image-keyboard-response,49
true,2,1,1,1,true,z,false,true,0.0-2.0-0.8-0.79-3.79,0,0,0,90,false,stim,false,2,1143.7000000476837,1,0,2,91572,WMM1,333923,false,false,340,image-keyboard-response,50
true,2,0,1,0,true,q,false,true,0.0-2.0-0.8-0.80-3.80,0,0,0,81,false,stim,false,1,696.7999999523163,1,0,1,91572,WMM1,336146,false,false,343,image-keyboard-response,51
true,2,0,1,0,true,q,false,true,0.0-2.0-0.9-0.81-3.81,0,0,0,81,false,stim,false,1,518.2000000476837,1,0,1,91572,WMM1,338194,false,false,346,image-keyboard-response,52
true,2,0,1,0,true,q,false,true,0.0-2.0-0.9-0.82-3.82,0,0,0,81,false,stim,false,1,494.7999999523163,1,0,1,91572,WMM1,340207,false,false,349,image-keyboard-response,53
true,2,1,1,1,true,z,false,true,0.0-2.0-0.9-0.83-3.83,0,0,0,90,false,stim,false,2,1167.9000000953674,1,0,2,91572,WMM1,342894,false,false,352,image-keyboard-response,54
true,2,2,1,2,true,d,false,true,0.0-2.0-0.9-0.84-3.84,0,0,0,68,false,stim,false,0,769.2999999523163,1,0,0,91572,WMM1,345188,false,false,355,image-keyboard-response,55
true,2,0,1,0,true,q,false,true,0.0-2.0-0.9-0.85-3.85,0,0,0,81,false,stim,false,1,800.7999999523163,1,0,1,91572,WMM1,347523,false,false,358,image-keyboard-response,56
true,2,2,1,2,true,d,false,true,0.0-2.0-0.9-0.86-3.86,0,0,0,68,false,stim,false,0,998.9000000953674,1,0,0,91572,WMM1,350048,false,false,361,image-keyboard-response,57
true,2,1,1,1,true,z,false,true,0.0-2.0-0.9-0.87-3.87,0,0,0,90,false,stim,false,2,781.0,1,0,2,91572,WMM1,352361,false,false,364,image-keyboard-response,58
true,2,2,1,2,true,d,false,true,0.0-2.0-0.9-0.88-3.88,0,0,0,68,false,stim,false,0,1029.7999999523163,1,0,0,91572,WMM1,354924,false,false,367,image-keyboard-response,59
true,2,0,1,1,false,z,true,false,0.0-2.0-0.9-0.89-3.89,0,0,0,81,false,stim,false,2,857.4000000953674,1,0,2,91572,WMM1,357287,false,false,370,image-keyboard-response,60
true,3,2,1,1,false,z,true,true,0.0-2.0-0.10-0.90-3.90,0,0,0,68,true,stim,false,0,1510.6000001430511,1,0,1,91572,WMM1,360320,false,true,373,image-keyboard-response,1
true,3,1,1,0,false,q,false,false,0.0-2.0-0.10-0.91-3.91,0,0,0,90,false,stim,true,1,854.2999999523163,1,0,2,91572,WMM1,362694,false,false,376,image-keyboard-response,2
true,3,1,1,0,false,q,false,false,0.0-2.0-0.10-0.92-3.92,0,0,0,90,false,stim,true,1,517.0,1,0,2,91572,WMM1,364735,false,false,379,image-keyboard-response,3
true,3,2,1,1,false,z,false,false,0.0-2.0-0.10-0.93-3.93,0,0,0,68,false,stim,true,2,706.9000000953674,1,0,0,91572,WMM1,366973,false,false,382,image-keyboard-response,4
true,3,2,1,0,false,q,true,false,0.0-2.0-0.10-0.94-3.94,0,0,0,68,false,stim,false,1,511.10000014305115,1,0,2,91572,WMM1,369006,false,false,385,image-keyboard-response,5
true,3,0,1,1,false,z,false,false,0.0-2.0-0.10-0.95-3.95,0,0,0,81,false,stim,true,0,922.9000000953674,1,0,1,91572,WMM1,371453,false,false,388,image-keyboard-response,6
true,3,2,1,1,false,z,false,false,0.0-2.0-0.10-0.96-3.96,0,0,0,68,false,stim,true,2,1500.7999999523163,1,0,0,91572,WMM1,374480,false,false,391,image-keyboard-response,7
true,3,1,1,1,true,z,false,true,0.0-2.0-0.10-0.97-3.97,0,0,0,90,false,stim,false,0,773.6000001430511,1,0,1,91572,WMM1,376783,false,false,394,image-keyboard-response,8
true,3,1,1,1,true,z,false,true,0.0-2.0-0.10-0.98-3.98,0,0,0,90,false,stim,false,2,798.7999999523163,1,0,0,91572,WMM1,379106,false,false,397,image-keyboard-response,9
true,3,2,1,0,false,q,true,false,0.0-2.0-0.11-0.99-3.99,0,0,0,68,false,stim,false,1,526.0,1,0,2,91572,WMM1,381158,false,false,400,image-keyboard-response,10
true,3,1,1,1,true,z,false,true,0.0-2.0-0.11-0.100-3.100,0,0,0,90,false,stim,false,2,805.2999999523163,1,0,0,91572,WMM1,383491,false,false,403,image-keyboard-response,11
true,3,1,1,1,true,z,false,true,0.0-2.0-0.11-0.101-3.101,0,0,0,90,false,stim,false,0,562.5999999046326,1,0,1,91572,WMM1,385579,false,false,406,image-keyboard-response,12
true,3,0,1,0,true,q,false,false,0.0-2.0-0.11-0.102-3.102,0,0,0,81,false,stim,false,1,688.7000000476837,1,0,2,91572,WMM1,387787,false,true,409,image-keyboard-response,13
true,3,2,1,0,false,q,true,true,0.0-2.0-0.11-0.103-3.103,0,0,0,68,false,stim,false,1,516.9000000953674,1,0,2,91572,WMM1,389829,false,true,412,image-keyboard-response,14
true,3,1,1,1,true,z,false,true,0.0-2.0-0.11-0.104-3.104,0,0,0,90,false,stim,false,0,789.7000000476837,1,0,1,91572,WMM1,392147,false,false,415,image-keyboard-response,15
true,3,2,1,1,false,z,false,false,0.0-2.0-0.11-0.105-3.105,0,0,0,68,false,stim,true,2,827.7000000476837,1,0,0,91572,WMM1,394499,false,false,418,image-keyboard-response,16
true,3,1,1,1,true,z,false,true,0.0-2.0-0.11-0.106-3.106,0,0,0,90,false,stim,false,0,771.4000000953674,1,0,1,91572,WMM1,396792,false,false,421,image-keyboard-response,17
true,3,2,1,1,false,z,false,false,0.0-2.0-0.11-0.107-3.107,0,0,0,68,false,stim,true,2,1297.7999999523163,1,0,0,91572,WMM1,399614,false,false,424,image-keyboard-response,18
true,3,2,1,0,false,q,true,false,0.0-2.0-0.12-0.108-3.108,0,0,0,68,false,stim,false,1,999.4000000953674,1,0,2,91572,WMM1,402146,false,false,427,image-keyboard-response,19
true,3,0,1,1,false,z,false,false,0.0-2.0-0.12-0.109-3.109,0,0,0,81,false,stim,true,0,621.0999999046326,1,0,1,91572,WMM1,404299,false,false,430,image-keyboard-response,20
true,3,1,1,1,true,z,false,true,0.0-2.0-0.12-0.110-3.110,0,0,0,90,false,stim,false,2,661.0,1,0,0,91572,WMM1,406487,false,false,433,image-keyboard-response,21
true,3,1,1,0,false,q,false,false,0.0-2.0-0.12-0.111-3.111,0,0,0,90,false,stim,true,1,1070.0999999046326,1,0,2,91572,WMM1,409080,false,false,436,image-keyboard-response,22
true,3,1,1,1,true,z,false,true,0.0-2.0-0.12-0.112-3.112,0,0,0,90,false,stim,false,2,881.0,1,0,0,91572,WMM1,411487,false,false,439,image-keyboard-response,23
true,3,0,1,1,false,z,false,false,0.0-2.0-0.12-0.113-3.113,0,0,0,81,false,stim,true,0,1233.6000001430511,1,0,1,91572,WMM1,414254,false,false,442,image-keyboard-response,24
true,3,1,1,1,true,z,false,true,0.0-2.0-0.12-0.114-3.114,0,0,0,90,false,stim,false,2,837.3999998569489,1,0,0,91572,WMM1,416622,false,false,445,image-keyboard-response,25
true,3,2,1,0,false,q,true,false,0.0-2.0-0.12-0.115-3.115,0,0,0,68,false,stim,false,1,684.7999999523163,1,0,2,91572,WMM1,418835,false,false,448,image-keyboard-response,26
true,3,1,1,1,true,z,false,false,0.0-2.0-0.12-0.116-3.116,0,0,0,90,false,stim,false,0,1056.1999998092651,1,0,1,91572,WMM1,421418,false,true,451,image-keyboard-response,27
true,3,2,1,1,false,z,false,false,0.0-2.0-0.13-0.117-3.117,0,0,0,68,false,stim,true,2,844.7000000476837,1,0,0,91572,WMM1,423770,false,false,454,image-keyboard-response,28
true,3,0,1,0,true,q,false,false,0.0-2.0-0.13-0.118-3.118,0,0,0,81,false,stim,false,1,741.4000000953674,1,0,2,91572,WMM1,426033,false,true,457,image-keyboard-response,29
true,3,1,1,1,true,z,false,true,0.0-2.0-0.13-0.119-3.119,0,0,0,90,false,stim,false,2,534.2000000476837,1,0,0,91572,WMM1,428093,false,false,460,image-keyboard-response,30
true,3,2,1,1,false,z,true,false,0.0-2.0-0.13-0.120-3.120,0,0,0,68,false,stim,false,0,1366.5,1,0,1,91572,WMM1,430988,false,false,463,image-keyboard-response,31
true,3,1,1,1,true,z,false,true,0.0-2.0-0.13-0.121-3.121,0,0,0,90,false,stim,false,2,631.8999998569489,1,0,0,91572,WMM1,433152,false,false,466,image-keyboard-response,32
true,3,1,1,1,true,z,false,true,0.0-2.0-0.13-0.122-3.122,0,0,0,90,false,stim,false,0,473.80000019073486,1,0,1,91572,WMM1,435138,false,false,469,image-keyboard-response,33
true,3,0,1,0,true,q,false,true,0.0-2.0-0.13-0.123-3.123,0,0,0,81,false,stim,false,1,826.5999999046326,1,0,2,91572,WMM1,437491,false,false,472,image-keyboard-response,34
true,3,0,1,0,true,q,false,false,0.0-2.0-0.13-0.124-3.124,0,0,0,81,false,stim,false,1,593.3999998569489,1,0,2,91572,WMM1,439603,false,true,475,image-keyboard-response,35
true,3,1,1,1,true,z,false,true,0.0-2.0-0.13-0.125-3.125,0,0,0,90,false,stim,false,0,639.0,1,0,1,91572,WMM1,441762,false,false,478,image-keyboard-response,36
true,3,0,1,0,true,q,false,true,0.0-2.0-0.14-0.126-3.126,0,0,0,81,false,stim,false,1,621.3999998569489,1,0,2,91572,WMM1,443909,false,false,481,image-keyboard-response,37
true,3,0,1,0,true,q,false,true,0.0-2.0-0.14-0.127-3.127,0,0,0,81,false,stim,false,1,525.5,1,0,2,91572,WMM1,445962,false,false,484,image-keyboard-response,38
true,3,1,1,1,true,z,false,true,0.0-2.0-0.14-0.128-3.128,0,0,0,90,false,stim,false,2,548.5,1,0,0,91572,WMM1,448037,false,false,487,image-keyboard-response,39
true,3,1,1,1,true,z,false,true,0.0-2.0-0.14-0.129-3.129,0,0,0,90,false,stim,false,0,559.7000000476837,1,0,1,91572,WMM1,450128,false,false,490,image-keyboard-response,40
true,3,0,1,1,false,z,true,false,0.0-2.0-0.14-0.130-3.130,0,0,0,81,false,stim,false,2,1353.1000001430511,1,0,0,91572,WMM1,453001,false,false,493,image-keyboard-response,41
true,3,1,1,1,true,z,false,true,0.0-2.0-0.14-0.131-3.131,0,0,0,90,false,stim,false,2,542.0,1,0,0,91572,WMM1,455068,false,false,496,image-keyboard-response,42
true,3,1,1,1,true,z,false,true,0.0-2.0-0.14-0.132-3.132,0,0,0,90,false,stim,false,0,1480.7999999523163,1,0,1,91572,WMM1,458075,false,false,499,image-keyboard-response,43
true,3,1,1,1,true,z,false,true,0.0-2.0-0.14-0.133-3.133,0,0,0,90,false,stim,false,0,524.0999999046326,1,0,1,91572,WMM1,460117,false,false,502,image-keyboard-response,44
true,3,0,1,0,true,q,false,true,0.0-2.0-0.14-0.134-3.134,0,0,0,81,false,stim,false,1,537.7999999523163,1,0,2,91572,WMM1,462174,false,false,505,image-keyboard-response,45
true,3,1,1,1,true,z,false,true,0.0-2.0-0.15-0.135-3.135,0,0,0,90,false,stim,false,0,583.5,1,0,1,91572,WMM1,464288,false,false,508,image-keyboard-response,46
true,4,0,2,1,false,z,false,false,0.0-2.0-0.15-0.136-3.136,0,0,0,81,true,stim,true,0,1013.7999999523163,1,0,2,91572,WMM1,466834,false,false,511,image-keyboard-response,1
true,4,1,2,1,true,z,false,true,0.0-2.0-0.15-0.137-3.137,0,0,0,90,false,stim,false,0,511.2000000476837,1,0,2,91572,WMM1,468863,false,false,514,image-keyboard-response,2
true,4,1,2,1,true,z,false,true,0.0-2.0-0.15-0.138-3.138,0,0,0,90,false,stim,false,0,558.4000000953674,1,0,2,91572,WMM1,470940,false,false,517,image-keyboard-response,3
true,4,1,2,2,false,d,false,false,0.0-2.0-0.15-0.139-3.139,0,0,0,90,false,stim,true,1,1022.7999999523163,1,0,0,91572,WMM1,473482,false,false,520,image-keyboard-response,4
true,4,1,2,0,false,q,false,false,0.0-2.0-0.15-0.140-3.140,0,0,0,90,false,stim,true,1,695.0,1,0,1,91572,WMM1,475701,false,false,523,image-keyboard-response,5
true,4,1,2,0,false,q,false,false,0.0-2.0-0.15-0.141-3.141,0,0,0,90,false,stim,true,1,619.6000001430511,1,0,1,91572,WMM1,477838,false,false,526,image-keyboard-response,6
true,4,1,2,2,false,d,false,false,0.0-2.0-0.15-0.142-3.142,0,0,0,90,false,stim,true,1,618.8999998569489,1,0,0,91572,WMM1,479971,false,false,529,image-keyboard-response,7
true,4,2,2,2,true,d,false,true,0.0-2.0-0.15-0.143-3.143,0,0,0,68,false,stim,false,1,751.0,1,0,0,91572,WMM1,482237,false,false,532,image-keyboard-response,8
true,4,2,2,1,false,z,true,false,0.0-2.0-0.16-0.144-3.144,0,0,0,68,false,stim,false,0,765.6999998092651,1,0,2,91572,WMM1,484535,false,false,535,image-keyboard-response,9
true,4,0,2,1,false,z,false,false,0.0-2.0-0.16-0.145-3.145,0,0,0,81,false,stim,true,0,1029.6000001430511,1,0,2,91572,WMM1,487093,false,false,538,image-keyboard-response,10
true,4,1,2,0,false,q,false,false,0.0-2.0-0.16-0.146-3.146,0,0,0,90,false,stim,true,1,1281.3999998569489,1,0,1,91572,WMM1,489890,false,false,541,image-keyboard-response,11
true,4,2,2,2,true,d,false,true,0.0-2.0-0.16-0.147-3.147,0,0,0,68,false,stim,false,1,1238.8000001907349,1,0,0,91572,WMM1,492646,false,false,544,image-keyboard-response,12
true,4,2,2,0,false,q,true,false,0.0-2.0-0.16-0.148-3.148,0,0,0,68,false,stim,false,1,464.2000000476837,1,0,1,91572,WMM1,494639,false,false,547,image-keyboard-response,13
true,4,2,2,2,true,d,false,false,0.0-2.0-0.16-0.149-3.149,0,0,0,68,false,stim,false,1,584.1000001430511,1,0,0,91572,WMM1,496753,false,true,550,image-keyboard-response,14
true,4,2,2,0,false,q,true,false,0.0-2.0-0.16-0.150-3.150,0,0,0,68,false,stim,false,1,566.0,1,0,1,91572,WMM1,498849,false,false,553,image-keyboard-response,15
true,4,2,2,2,true,d,false,true,0.0-2.0-0.16-0.151-3.151,0,0,0,68,false,stim,false,1,581.2999999523163,1,0,0,91572,WMM1,500963,false,false,556,image-keyboard-response,16
true,4,0,2,1,false,z,false,false,0.0-2.0-0.16-0.152-3.152,0,0,0,81,false,stim,true,0,688.5999999046326,1,0,2,91572,WMM1,503185,false,false,559,image-keyboard-response,17
true,4,1,2,1,true,z,false,true,0.0-2.0-0.17-0.153-3.153,0,0,0,90,false,stim,false,0,735.0999999046326,1,0,2,91572,WMM1,505449,false,false,562,image-keyboard-response,18
true,4,2,2,2,true,d,false,false,0.0-2.0-0.17-0.154-3.154,0,0,0,68,false,stim,false,1,672.5,1,0,0,91572,WMM1,507650,false,true,565,image-keyboard-response,19
true,4,1,2,0,false,q,false,true,0.0-2.0-0.17-0.155-3.155,0,0,0,90,false,stim,true,1,1501.2999999523163,1,0,1,91572,WMM1,510677,false,true,568,image-keyboard-response,20
true,4,1,2,0,false,q,false,false,0.0-2.0-0.17-0.156-3.156,0,0,0,90,false,stim,true,1,591.7999999523163,1,0,1,91572,WMM1,512795,false,false,571,image-keyboard-response,21
true,4,2,2,2,true,d,false,true,0.0-2.0-0.17-0.157-3.157,0,0,0,68,false,stim,false,1,787.5999999046326,1,0,0,91572,WMM1,515108,false,false,574,image-keyboard-response,22
true,4,1,2,0,false,q,false,false,0.0-2.0-0.17-0.158-3.158,0,0,0,90,false,stim,true,1,1253.5999999046326,1,0,1,91572,WMM1,517890,false,false,577,image-keyboard-response,23
true,4,1,2,1,true,z,false,true,0.0-2.0-0.17-0.159-3.159,0,0,0,90,false,stim,false,0,1241.1999998092651,1,0,2,91572,WMM1,520657,false,false,580,image-keyboard-response,24
true,4,1,2,1,true,z,false,false,0.0-2.0-0.17-0.160-3.160,0,0,0,90,false,stim,false,0,559.7000000476837,1,0,2,91572,WMM1,522735,false,true,583,image-keyboard-response,25
true,4,2,2,2,true,d,false,true,0.0-2.0-0.17-0.161-3.161,0,0,0,68,false,stim,false,1,823.8999998569489,1,0,0,91572,WMM1,525082,false,false,586,image-keyboard-response,26
true,4,1,2,0,false,q,false,false,0.0-2.0-0.18-0.162-3.162,0,0,0,90,false,stim,true,1,1183.4000000953674,1,0,1,91572,WMM1,527789,false,false,589,image-keyboard-response,27
true,4,0,2,0,true,q,false,false,0.0-2.0-0.18-0.163-3.163,0,0,0,81,false,stim,false,1,858.2999999523163,1,0,1,91572,WMM1,530178,false,true,592,image-keyboard-response,28
true,4,2,2,1,false,z,true,false,0.0-2.0-0.18-0.164-3.164,0,0,0,68,false,stim,false,0,899.4000000953674,1,0,2,91572,WMM1,532600,false,false,595,image-keyboard-response,29
true,4,2,2,2,true,d,false,true,0.0-2.0-0.18-0.165-3.165,0,0,0,68,false,stim,false,1,606.1000001430511,1,0,0,91572,WMM1,534739,false,false,598,image-keyboard-response,30
true,4,2,2,2,true,d,false,true,0.0-2.0-0.18-0.166-3.166,0,0,0,68,false,stim,false,1,1256.4000000953674,1,0,0,91572,WMM1,537525,false,false,601,image-keyboard-response,31
true,4,0,2,1,false,z,false,false,0.0-2.0-0.18-0.167-3.167,0,0,0,81,false,stim,true,0,1107.1000001430511,1,0,2,91572,WMM1,540168,false,false,604,image-keyboard-response,32
true,4,1,2,2,false,d,false,true,0.0-2.0-0.18-0.168-3.168,0,0,0,90,false,stim,true,1,705.0999999046326,1,0,0,91572,WMM1,542399,false,true,607,image-keyboard-response,33
true,4,2,2,1,false,z,true,false,0.0-2.0-0.18-0.169-3.169,0,0,0,68,false,stim,false,0,745.7999999523163,1,0,2,91572,WMM1,544672,false,false,610,image-keyboard-response,34
true,4,2,2,0,false,q,true,false,0.0-2.0-0.18-0.170-3.170,0,0,0,68,false,stim,false,1,857.9000000953674,1,0,1,91572,WMM1,547059,false,false,613,image-keyboard-response,35
true,4,2,2,2,true,d,false,true,0.0-2.0-0.19-0.171-3.171,0,0,0,68,false,stim,false,1,1127.2000000476837,1,0,0,91572,WMM1,549712,false,false,616,image-keyboard-response,36
true,4,2,2,0,false,q,true,false,0.0-2.0-0.19-0.172-3.172,0,0,0,68,false,stim,false,1,1956.5999999046326,1,0,1,91572,WMM1,553188,false,false,619,image-keyboard-response,37
true,4,2,2,2,true,d,false,true,0.0-2.0-0.19-0.173-3.173,0,0,0,68,false,stim,false,1,1361.8999998569489,1,0,0,91572,WMM1,556076,false,false,622,image-keyboard-response,38
true,4,2,2,0,false,q,true,true,0.0-2.0-0.19-0.174-3.174,0,0,0,68,false,stim,false,1,2460.0,1,0,1,91572,WMM1,560057,false,true,625,image-keyboard-response,39
true,4,0,2,1,false,z,false,false,0.0-2.0-0.19-0.175-3.175,0,0,0,81,false,stim,true,0,1359.0,1,0,2,91572,WMM1,562933,false,false,628,image-keyboard-response,40
true,4,2,2,1,false,z,true,false,0.0-2.0-0.19-0.176-3.176,0,0,0,68,false,stim,false,0,1027.5,1,0,2,91572,WMM1,565495,false,false,631,image-keyboard-response,41
true,4,1,2,1,true,z,false,true,0.0-2.0-0.19-0.177-3.177,0,0,0,90,false,stim,false,0,708.7999999523163,1,0,2,91572,WMM1,567728,false,false,634,image-keyboard-response,42
true,4,2,2,0,false,q,true,false,0.0-2.0-0.19-0.178-3.178,0,0,0,68,false,stim,false,1,599.2999999523163,1,0,1,91572,WMM1,569851,false,false,637,image-keyboard-response,43
true,4,2,2,2,true,d,false,true,0.0-2.0-0.19-0.179-3.179,0,0,0,68,false,stim,false,1,1138.2000000476837,1,0,0,91572,WMM1,572515,false,false,640,image-keyboard-response,44
true,4,2,2,2,true,d,false,true,0.0-2.0-0.20-0.180-3.180,0,0,0,68,false,stim,false,1,587.8999998569489,1,0,0,91572,WMM1,574632,false,false,643,image-keyboard-response,45
true,4,1,2,1,true,z,false,true,0.0-2.0-0.20-0.181-3.181,0,0,0,90,false,stim,false,0,776.2000000476837,1,0,2,91572,WMM1,576949,false,false,646,image-keyboard-response,46
true,4,0,2,0,true,q,false,true,0.0-2.0-0.20-0.182-3.182,0,0,0,81,false,stim,false,1,908.7000000476837,1,0,1,91572,WMM1,579382,false,false,649,image-keyboard-response,47
true,4,0,2,0,true,q,false,true,0.0-2.0-0.20-0.183-3.183,0,0,0,81,false,stim,false,1,532.4000000953674,1,0,1,91572,WMM1,581438,false,false,652,image-keyboard-response,48
true,4,1,2,2,false,d,false,false,0.0-2.0-0.20-0.184-3.184,0,0,0,90,false,stim,true,1,1399.2999999523163,1,1,0,91572,WMM1,584366,false,false,655,image-keyboard-response,49
true,4,0,2,0,true,q,false,true,0.0-2.0-0.20-0.185-3.185,0,0,0,81,false,stim,false,1,863.2999999523163,1,0,1,91572,WMM1,586747,false,false,658,image-keyboard-response,50
true,4,2,2,1,false,z,true,false,0.0-2.0-0.20-0.186-3.186,0,0,0,68,false,stim,false,0,591.7000000476837,1,0,2,91572,WMM1,588856,false,false,661,image-keyboard-response,51
true,4,2,2,1,false,z,true,false,0.0-2.0-0.20-0.187-3.187,0,0,0,68,false,stim,false,0,426.7999999523163,1,0,2,91572,WMM1,590818,false,false,664,image-keyboard-response,52
true,4,2,2,2,true,d,false,true,0.0-2.0-0.20-0.188-3.188,0,0,0,68,false,stim,false,1,426.69999980926514,1,1,0,91572,WMM1,592767,false,false,667,image-keyboard-response,53
true,4,0,2,0,true,q,false,true,0.0-2.0-0.21-0.189-3.189,0,0,0,81,false,stim,false,1,652.9000000953674,1,0,1,91572,WMM1,594944,false,false,670,image-keyboard-response,54
true,4,1,2,1,true,z,false,true,0.0-2.0-0.21-0.190-3.190,0,0,0,90,false,stim,false,0,619.5999999046326,1,0,2,91572,WMM1,597092,false,false,673,image-keyboard-response,55
true,4,1,2,1,true,z,false,true,0.0-2.0-0.21-0.191-3.191,0,0,0,90,false,stim,false,0,476.40000009536743,1,0,2,91572,WMM1,599094,false,false,676,image-keyboard-response,56
true,4,1,2,0,false,q,false,false,0.0-2.0-0.21-0.192-3.192,0,0,0,90,false,stim,true,1,461.90000009536743,1,0,1,91572,WMM1,601077,false,false,679,image-keyboard-response,57
true,4,2,2,2,true,d,false,true,0.0-2.0-0.21-0.193-3.193,0,0,0,68,false,stim,false,1,1378.4000000953674,1,1,0,91572,WMM1,603970,false,false,682,image-keyboard-response,58
true,5,2,3,2,true,d,false,true,0.0-2.0-0.21-0.194-3.194,1,0,0,68,true,stim,false,2,707.1000001430511,1,1,0,91572,WMM1,606198,false,false,685,image-keyboard-response,1
true,5,2,3,2,true,d,false,true,0.0-2.0-0.21-0.195-3.195,1,0,0,68,false,stim,false,2,562.5999999046326,1,1,0,91572,WMM1,608271,false,false,688,image-keyboard-response,2
true,5,0,3,1,false,z,false,false,0.0-2.0-0.21-0.196-3.196,1,0,0,81,false,stim,true,0,1376.0,1,0,1,91572,WMM1,611178,false,false,691,image-keyboard-response,3
true,5,2,3,0,false,q,true,false,0.0-2.0-0.21-0.197-3.197,1,0,0,68,false,stim,false,1,752.7999999523163,1,0,2,91572,WMM1,613456,false,false,694,image-keyboard-response,4
true,5,1,3,0,false,q,false,false,0.0-2.0-0.22-0.198-3.198,1,0,0,90,false,stim,true,1,1011.0999999046326,1,0,2,91572,WMM1,615995,false,false,697,image-keyboard-response,5
true,5,0,3,0,true,q,false,true,0.0-2.0-0.22-0.199-3.199,1,0,0,81,false,stim,false,1,780.9000000953674,1,0,2,91572,WMM1,618296,false,false,700,image-keyboard-response,6
true,5,0,3,1,false,z,false,false,0.0-2.0-0.22-0.200-3.200,1,0,0,81,false,stim,true,0,476.40000009536743,1,0,1,91572,WMM1,620305,false,false,703,image-keyboard-response,7
true,5,0,3,1,false,z,false,false,0.0-2.0-0.22-0.201-3.201,1,0,0,81,false,stim,true,0,579.7000000476837,1,0,1,91572,WMM1,622403,false,false,706,image-keyboard-response,8
true,5,0,3,2,false,d,true,false,0.0-2.0-0.22-0.202-3.202,1,0,0,81,false,stim,false,2,1064.2000000476837,1,1,0,91572,WMM1,624985,false,false,709,image-keyboard-response,9
true,5,1,3,2,false,d,true,true,0.0-2.0-0.22-0.203-3.203,1,0,0,90,false,stim,false,2,567.5,1,1,0,91572,WMM1,627073,false,true,712,image-keyboard-response,10
true,5,1,3,2,false,d,true,true,0.0-2.0-0.22-0.204-3.204,1,0,0,90,false,stim,false,2,482.89999985694885,1,1,0,91572,WMM1,629086,false,true,715,image-keyboard-response,11
true,5,0,3,0,true,q,false,true,0.0-2.0-0.22-0.205-3.205,1,0,0,81,false,stim,false,1,529.5,1,0,2,91572,WMM1,631144,false,false,718,image-keyboard-response,12
true,5,2,3,1,false,z,true,false,0.0-2.0-0.22-0.206-3.206,1,0,0,68,false,stim,false,0,894.8999998569489,1,0,1,91572,WMM1,633558,false,false,721,image-keyboard-response,13
true,5,1,3,1,true,z,false,true,0.0-2.0-0.23-0.207-3.207,1,0,0,90,false,stim,false,0,589.5999999046326,1,0,1,91572,WMM1,635670,false,false,724,image-keyboard-response,14
true,5,0,3,0,true,q,false,false,0.0-2.0-0.23-0.208-3.208,1,0,0,81,false,stim,false,1,503.60000014305115,1,0,2,91572,WMM1,637698,false,true,727,image-keyboard-response,15
true,5,1,3,1,true,z,false,true,0.0-2.0-0.23-0.209-3.209,1,0,0,90,false,stim,false,0,668.1000001430511,1,0,1,91572,WMM1,639891,false,false,730,image-keyboard-response,16
true,5,0,3,0,true,q,false,true,0.0-2.0-0.23-0.210-3.210,1,0,0,81,false,stim,false,1,543.1000001430511,1,0,2,91572,WMM1,641964,false,false,733,image-keyboard-response,17
true,5,1,3,0,false,q,false,false,0.0-2.0-0.23-0.211-3.211,1,0,0,90,false,stim,true,1,547.7000000476837,1,0,2,91572,WMM1,644033,false,false,736,image-keyboard-response,18
true,5,1,3,2,false,d,true,false,0.0-2.0-0.23-0.212-3.212,1,0,0,90,false,stim,false,2,892.7999999523163,1,1,0,91572,WMM1,646459,false,false,739,image-keyboard-response,19
true,5,1,3,1,true,z,false,true,0.0-2.0-0.23-0.213-3.213,1,0,0,90,false,stim,false,0,1382.0,1,0,1,91572,WMM1,649368,false,false,742,image-keyboard-response,20
true,5,1,3,2,false,d,true,false,0.0-2.0-0.23-0.214-3.214,1,0,0,90,false,stim,false,2,1318.2999999523163,1,1,0,91572,WMM1,652214,false,false,745,image-keyboard-response,21
true,5,1,3,2,false,d,true,false,0.0-2.0-0.23-0.215-3.215,1,0,0,90,false,stim,false,2,699.6000001430511,1,1,0,91572,WMM1,654442,false,false,748,image-keyboard-response,22
true,5,2,3,2,true,d,false,true,0.0-2.0-0.24-0.216-3.216,1,0,0,68,false,stim,false,2,582.6000001430511,1,1,0,91572,WMM1,656555,false,false,751,image-keyboard-response,23
true,5,0,3,0,true,q,false,true,0.0-2.0-0.24-0.217-3.217,1,0,0,81,false,stim,false,1,723.2999999523163,1,0,2,91572,WMM1,658794,false,false,754,image-keyboard-response,24
true,5,1,3,1,true,z,false,true,0.0-2.0-0.24-0.218-3.218,1,0,0,90,false,stim,false,0,1051.9000000953674,1,0,1,91572,WMM1,661370,false,false,757,image-keyboard-response,25
true,5,0,3,0,true,q,false,true,0.0-2.0-0.24-0.219-3.219,1,0,0,81,false,stim,false,1,806.0,1,0,2,91572,WMM1,663709,false,false,760,image-keyboard-response,26
true,5,2,3,2,true,d,false,true,0.0-2.0-0.24-0.220-3.220,1,0,0,68,false,stim,false,2,652.4000000953674,1,1,0,91572,WMM1,665890,false,false,763,image-keyboard-response,27
true,5,1,3,1,true,z,false,true,0.0-2.0-0.24-0.221-3.221,1,0,0,90,false,stim,false,0,894.7000000476837,1,0,1,91572,WMM1,668304,false,false,766,image-keyboard-response,28
true,5,2,3,2,true,d,false,true,0.0-2.0-0.24-0.222-3.222,1,0,0,68,false,stim,false,2,1250.7000000476837,1,0,0,91572,WMM1,671084,false,false,769,image-keyboard-response,29
true,5,1,3,1,true,z,false,true,0.0-2.0-0.24-0.223-3.223,1,0,0,90,false,stim,false,0,1426.2000000476837,1,0,1,91572,WMM1,674036,false,false,772,image-keyboard-response,30
true,5,1,3,0,false,q,false,false,0.0-2.0-0.24-0.224-3.224,1,0,0,90,false,stim,true,1,792.5,1,0,2,91572,WMM1,676354,false,false,775,image-keyboard-response,31
true,5,0,3,2,false,d,true,false,0.0-2.0-0.25-0.225-3.225,1,0,0,81,false,stim,false,2,506.2999999523163,1,0,0,91572,WMM1,678382,false,false,778,image-keyboard-response,32
true,5,1,3,1,true,z,false,true,0.0-2.0-0.25-0.226-3.226,1,0,0,90,false,stim,false,0,742.1999998092651,1,0,1,91572,WMM1,680650,false,false,781,image-keyboard-response,33
true,5,2,3,0,false,q,true,false,0.0-2.0-0.25-0.227-3.227,1,0,0,68,false,stim,false,1,738.2999999523163,1,0,2,91572,WMM1,682922,false,false,784,image-keyboard-response,34
true,5,1,3,0,false,q,false,true,0.0-2.0-0.25-0.228-3.228,1,0,0,90,false,stim,true,1,1119.4000000953674,1,0,2,91572,WMM1,685569,false,true,787,image-keyboard-response,35
true,5,0,3,2,false,d,true,false,0.0-2.0-0.25-0.229-3.229,1,0,0,81,false,stim,false,2,737.5999999046326,1,0,0,91572,WMM1,687837,false,false,790,image-keyboard-response,36
true,5,2,3,2,true,d,false,true,0.0-2.0-0.25-0.230-3.230,1,0,0,68,false,stim,false,2,710.0999999046326,1,0,0,91572,WMM1,690074,false,false,793,image-keyboard-response,37
true,6,1,4,2,false,d,false,false,0.0-2.0-0.25-0.231-3.231,0,0,0,90,true,stim,true,1,747.6000001430511,1,0,1,91572,WMM1,692356,false,false,796,image-keyboard-response,1
true,6,0,4,2,false,d,true,false,0.0-2.0-0.25-0.232-3.232,0,0,0,81,false,stim,false,1,890.3000001907349,1,0,1,91572,WMM1,694769,false,false,799,image-keyboard-response,2
true,6,2,4,2,true,d,false,true,0.0-2.0-0.25-0.233-3.233,0,0,0,68,false,stim,false,0,1130.2000000476837,1,0,2,91572,WMM1,697422,false,false,802,image-keyboard-response,3
true,6,1,4,0,false,q,true,true,0.0-2.0-0.26-0.234-3.234,0,0,0,90,false,stim,false,2,909.7999999523163,1,0,0,91572,WMM1,699864,false,true,805,image-keyboard-response,4
true,6,2,4,2,true,d,false,true,0.0-2.0-0.26-0.235-3.235,0,0,0,68,false,stim,false,0,832.4000000953674,1,0,2,91572,WMM1,702218,false,false,808,image-keyboard-response,5
true,6,2,4,2,true,d,false,true,0.0-2.0-0.26-0.236-3.236,0,0,0,68,false,stim,false,0,525.0,1,0,2,91572,WMM1,704275,false,false,811,image-keyboard-response,6
true,6,0,4,2,false,d,true,false,0.0-2.0-0.26-0.237-3.237,0,0,0,81,false,stim,false,1,803.5,1,0,1,91572,WMM1,706598,false,false,814,image-keyboard-response,7
true,6,1,4,0,false,q,true,false,0.0-2.0-0.26-0.238-3.238,0,0,0,90,false,stim,false,2,609.0,1,0,0,91572,WMM1,708737,false,false,817,image-keyboard-response,8
true,6,2,4,2,true,d,false,true,0.0-2.0-0.26-0.239-3.239,0,0,0,68,false,stim,false,1,1163.6000001430511,1,0,1,91572,WMM1,711419,false,false,820,image-keyboard-response,9
true,6,2,4,2,true,d,false,true,0.0-2.0-0.26-0.240-3.240,0,0,0,68,false,stim,false,1,629.1000001430511,1,0,1,91572,WMM1,713571,false,false,823,image-keyboard-response,10
true,6,1,4,0,false,q,true,false,0.0-2.0-0.26-0.241-3.241,0,0,0,90,false,stim,false,2,766.4000000953674,1,0,0,91572,WMM1,715869,false,false,826,image-keyboard-response,11
true,6,2,4,2,true,d,false,true,0.0-2.0-0.26-0.242-3.242,0,0,0,68,false,stim,false,0,733.9000000953674,1,0,2,91572,WMM1,718122,false,false,829,image-keyboard-response,12
true,6,0,4,0,true,q,false,false,0.0-2.0-0.27-0.243-3.243,0,0,0,81,false,stim,false,2,660.7000000476837,1,0,0,91572,WMM1,720310,false,true,832,image-keyboard-response,13
true,6,1,4,0,false,q,true,false,0.0-2.0-0.27-0.244-3.244,0,0,0,90,false,stim,false,2,893.1000001430511,1,0,0,91572,WMM1,722723,false,false,835,image-keyboard-response,14
true,6,2,4,2,true,d,false,true,0.0-2.0-0.27-0.245-3.245,0,0,0,68,false,stim,false,0,1111.7000000476837,1,0,2,91572,WMM1,725350,false,false,838,image-keyboard-response,15
true,6,1,4,2,false,d,false,false,0.0-2.0-0.27-0.246-3.246,0,0,0,90,false,stim,true,1,967.4000000953674,1,0,1,91572,WMM1,727838,false,false,841,image-keyboard-response,16
true,6,0,4,2,false,d,true,false,0.0-2.0-0.27-0.247-3.247,0,0,0,81,false,stim,false,1,1149.2000000476837,1,0,1,91572,WMM1,730515,false,false,844,image-keyboard-response,17
true,6,2,4,2,true,d,false,true,0.0-2.0-0.27-0.248-3.248,0,0,0,68,false,stim,false,0,833.6000001430511,1,0,2,91572,WMM1,732882,false,false,847,image-keyboard-response,18
true,6,1,4,2,false,d,false,false,0.0-2.0-0.27-0.249-3.249,0,0,0,90,false,stim,true,1,822.1000001430511,1,0,1,91572,WMM1,735235,false,false,850,image-keyboard-response,19
true,6,1,4,0,false,q,true,false,0.0-2.0-0.27-0.250-3.250,0,0,0,90,false,stim,false,2,1163.7999999523163,1,0,0,91572,WMM1,737927,false,false,853,image-keyboard-response,20
true,6,2,4,2,true,d,false,true,0.0-2.0-0.27-0.251-3.251,0,0,0,68,false,stim,false,0,860.0999999046326,1,0,2,91572,WMM1,740318,false,false,856,image-keyboard-response,21
true,6,2,4,0,false,q,false,false,0.0-2.0-0.28-0.252-3.252,0,0,0,68,false,stim,true,2,1088.6999998092651,1,0,0,91572,WMM1,742926,false,false,859,image-keyboard-response,22
true,6,1,4,0,false,q,true,false,0.0-2.0-0.28-0.253-3.253,0,0,0,90,false,stim,false,2,1279.7000000476837,1,0,0,91572,WMM1,745735,false,false,862,image-keyboard-response,23
true,6,0,4,2,false,d,false,false,0.0-2.0-0.28-0.254-3.254,0,0,0,81,false,stim,true,0,906.3999998569489,1,0,2,91572,WMM1,748175,false,false,865,image-keyboard-response,24
true,6,1,4,0,false,q,true,false,0.0-2.0-0.28-0.255-3.255,0,0,0,90,false,stim,false,2,785.7999999523163,1,0,0,91572,WMM1,750487,false,false,868,image-keyboard-response,25
true,6,1,4,2,false,d,true,false,0.0-2.0-0.28-0.256-3.256,0,0,0,90,false,stim,false,0,601.3000001907349,1,0,2,91572,WMM1,752615,false,false,871,image-keyboard-response,26
true,6,2,4,2,true,d,false,true,0.0-2.0-0.28-0.257-3.257,0,0,0,68,false,stim,false,1,1231.4000000953674,1,0,1,91572,WMM1,755377,false,false,874,image-keyboard-response,27
true,6,2,4,2,true,d,false,false,0.0-2.0-0.28-0.258-3.258,0,0,0,68,false,stim,false,0,854.2999999523163,1,0,2,91572,WMM1,757764,false,true,877,image-keyboard-response,28
true,6,2,4,2,true,d,false,true,0.0-2.0-0.28-0.259-3.259,0,0,0,68,false,stim,false,1,1619.1000001430511,1,0,1,91572,WMM1,760910,false,false,880,image-keyboard-response,29
true,6,2,4,2,true,d,false,true,0.0-2.0-0.28-0.260-3.260,0,0,0,68,false,stim,false,1,1223.0,1,0,1,91572,WMM1,763657,false,false,883,image-keyboard-response,30
true,6,2,4,2,true,d,false,true,0.0-2.0-0.29-0.261-3.261,0,0,0,68,false,stim,false,1,685.6999998092651,1,0,1,91572,WMM1,765871,false,false,886,image-keyboard-response,31
true,6,2,4,2,true,d,false,true,0.0-2.0-0.29-0.262-3.262,0,0,0,68,false,stim,false,1,702.7999999523163,1,0,1,91572,WMM1,768107,false,false,889,image-keyboard-response,32
true,6,0,4,2,false,d,false,false,0.0-2.0-0.29-0.263-3.263,0,0,0,81,false,stim,true,0,1224.5999999046326,1,0,2,91572,WMM1,770869,false,false,892,image-keyboard-response,33
true,6,2,4,2,true,d,false,true,0.0-2.0-0.29-0.264-3.264,0,0,0,68,false,stim,false,1,659.4000000953674,1,0,1,91572,WMM1,773066,false,false,895,image-keyboard-response,34
true,6,2,4,0,false,q,false,false,0.0-2.0-0.29-0.265-3.265,0,0,0,68,false,stim,true,2,774.5999999046326,1,0,0,91572,WMM1,775364,false,false,898,image-keyboard-response,35
true,6,2,4,2,true,d,false,true,0.0-2.0-0.29-0.266-3.266,0,0,0,68,false,stim,false,0,766.4000000953674,1,0,2,91572,WMM1,777661,false,false,901,image-keyboard-response,36
true,6,1,4,0,false,q,true,false,0.0-2.0-0.29-0.267-3.267,0,0,0,90,false,stim,false,2,986.2999999523163,1,0,0,91572,WMM1,780174,false,false,904,image-keyboard-response,37
true,6,2,4,0,false,q,false,false,0.0-2.0-0.29-0.268-3.268,0,0,0,68,false,stim,true,2,598.5,1,0,0,91572,WMM1,782300,false,false,907,image-keyboard-response,38
true,6,2,4,2,true,d,false,true,0.0-2.0-0.29-0.269-3.269,0,0,0,68,false,stim,false,0,1259.2999999523163,1,0,2,91572,WMM1,785093,false,false,910,image-keyboard-response,39
true,6,2,4,2,true,d,false,true,0.0-2.0-0.30-0.270-3.270,0,0,0,68,false,stim,false,0,466.7999999523163,1,0,2,91572,WMM1,787098,false,false,913,image-keyboard-response,40
true,6,2,4,2,true,d,false,true,0.0-2.0-0.30-0.271-3.271,0,0,0,68,false,stim,false,0,459.30000019073486,1,0,2,91572,WMM1,789091,false,false,916,image-keyboard-response,41
true,6,0,4,0,true,q,false,false,0.0-2.0-0.30-0.272-3.272,0,0,0,81,false,stim,false,2,790.0999999046326,1,0,0,91572,WMM1,791405,false,true,919,image-keyboard-response,42
true,6,1,4,0,false,q,true,true,0.0-2.0-0.30-0.273-3.273,0,0,0,90,false,stim,false,2,1250.9000000953674,1,0,0,91572,WMM1,794175,false,true,922,image-keyboard-response,43
true,6,2,4,2,true,d,false,true,0.0-2.0-0.30-0.274-3.274,0,0,0,68,false,stim,false,1,1095.7999999523163,1,0,1,91572,WMM1,796802,false,false,925,image-keyboard-response,44
true,6,1,4,2,false,d,false,false,0.0-2.0-0.30-0.275-3.275,0,0,0,90,false,stim,true,1,450.39999985694885,1,0,1,91572,WMM1,798770,false,false,928,image-keyboard-response,45
true,6,2,4,0,false,q,false,false,0.0-2.0-0.30-0.276-3.276,0,0,0,68,false,stim,true,2,849.2999999523163,1,0,0,91572,WMM1,801143,false,false,931,image-keyboard-response,46
true,6,1,4,2,false,d,false,false,0.0-2.0-0.30-0.277-3.277,0,0,0,90,false,stim,true,1,1333.6000001430511,1,0,1,91572,WMM1,804004,false,false,934,image-keyboard-response,47
true,6,2,4,2,true,d,false,true,0.0-2.0-0.30-0.278-3.278,0,0,0,68,false,stim,false,0,454.7000000476837,1,0,2,91572,WMM1,805986,false,false,937,image-keyboard-response,48
true,6,1,4,0,false,q,true,false,0.0-2.0-0.31-0.279-3.279,0,0,0,90,false,stim,false,2,883.0999999046326,1,0,0,91572,WMM1,808399,false,false,940,image-keyboard-response,49
true,6,2,4,2,true,d,false,true,0.0-2.0-0.31-0.280-3.280,0,0,0,68,false,stim,false,1,588.4000000953674,1,0,1,91572,WMM1,810512,false,false,943,image-keyboard-response,50
true,6,2,4,0,false,q,false,false,0.0-2.0-0.31-0.281-3.281,0,0,0,68,false,stim,true,2,930.7999999523163,1,0,0,91572,WMM1,812969,false,false,946,image-keyboard-response,51
true,6,2,4,2,true,d,false,false,0.0-2.0-0.31-0.282-3.282,0,0,0,68,false,stim,false,1,798.9000000953674,1,0,1,91572,WMM1,815286,false,true,949,image-keyboard-response,52
true,6,2,4,0,false,q,false,false,0.0-2.0-0.31-0.283-3.283,0,0,0,68,false,stim,true,2,964.0,1,0,0,91572,WMM1,817768,false,false,952,image-keyboard-response,53
true,6,0,4,2,false,d,false,false,0.0-2.0-0.31-0.284-3.284,0,0,0,81,false,stim,true,0,912.3000001907349,1,0,2,91572,WMM1,820211,false,false,955,image-keyboard-response,54
true,6,1,4,2,false,d,true,false,0.0-2.0-0.31-0.285-3.285,0,0,0,90,false,stim,false,0,691.9000000953674,1,0,2,91572,WMM1,822409,false,false,958,image-keyboard-response,55
true,6,2,4,2,true,d,false,true,0.0-2.0-0.31-0.286-3.286,0,0,0,68,false,stim,false,1,754.5,1,0,1,91572,WMM1,824696,false,false,961,image-keyboard-response,56
true,6,1,4,2,false,d,true,false,0.0-2.0-0.31-0.287-3.287,0,0,0,90,false,stim,false,0,1155.6000001430511,1,0,2,91572,WMM1,827384,false,false,964,image-keyboard-response,57
true,6,2,4,2,true,d,false,true,0.0-2.0-0.32-0.288-3.288,0,0,0,68,false,stim,false,1,777.2999999523163,1,0,1,91572,WMM1,829686,false,false,967,image-keyboard-response,58
true,6,2,4,2,true,d,false,true,0.0-2.0-0.32-0.289-3.289,0,0,0,68,false,stim,false,0,422.69999980926514,1,0,2,91572,WMM1,831625,false,false,970,image-keyboard-response,59
true,6,1,4,0,false,q,true,false,0.0-2.0-0.32-0.290-3.290,0,0,0,90,false,stim,false,2,930.0,1,0,0,91572,WMM1,834068,false,false,973,image-keyboard-response,60
true,7,2,2,1,false,z,false,true,0.0-2.0-0.32-0.291-3.291,0,0,0,68,true,stim,true,2,506.0,1,0,2,91572,WMM1,836105,false,true,976,image-keyboard-response,1
true,7,1,2,2,false,d,true,false,0.0-2.0-0.32-0.292-3.292,0,0,0,90,false,stim,false,0,179.89999985694885,1,0,0,91572,WMM1,837798,false,false,979,image-keyboard-response,2
true,7,0,2,2,false,d,false,false,0.0-2.0-0.32-0.293-3.293,0,0,0,81,false,stim,true,0,437.7999999523163,1,0,0,91572,WMM1,839766,false,false,982,image-keyboard-response,3
true,7,2,2,0,false,q,false,false,0.0-2.0-0.32-0.294-3.294,0,0,0,68,false,stim,true,2,690.0,1,0,1,91572,WMM1,841984,false,false,985,image-keyboard-response,4
true,7,2,2,1,false,z,false,false,0.0-2.0-0.32-0.295-3.295,0,0,0,68,false,stim,true,2,591.7000000476837,1,0,2,91572,WMM1,844103,false,false,988,image-keyboard-response,5
true,7,1,2,0,false,q,true,false,0.0-2.0-0.32-0.296-3.296,0,0,0,90,false,stim,false,2,45.30000019073486,1,0,1,91572,WMM1,845666,false,false,991,image-keyboard-response,6
true,7,2,2,0,false,q,false,false,0.0-2.0-0.33-0.297-3.297,0,0,0,68,false,stim,true,2,902.2999999523163,1,0,1,91572,WMM1,848093,false,false,994,image-keyboard-response,7
true,7,2,2,0,false,q,false,true,0.0-2.0-0.33-0.298-3.298,0,0,0,68,false,stim,true,2,905.5,1,0,1,91572,WMM1,850527,false,true,997,image-keyboard-response,8
true,7,0,2,2,false,d,false,true,0.0-2.0-0.33-0.299-3.299,0,0,0,81,false,stim,true,0,1399.9000000953674,1,0,0,91572,WMM1,853453,false,true,1000,image-keyboard-response,9
true,7,2,2,1,false,z,false,false,0.0-2.0-0.33-0.300-3.300,0,0,0,68,false,stim,true,2,673.7000000476837,1,0,2,91572,WMM1,855657,false,false,1003,image-keyboard-response,10
true,7,0,2,2,false,d,false,false,0.0-2.0-0.33-0.301-3.301,0,0,0,81,false,stim,true,0,573.5,1,0,0,91572,WMM1,857739,false,false,1006,image-keyboard-response,11
true,7,2,2,0,false,q,false,false,0.0-2.0-0.33-0.302-3.302,0,0,0,68,false,stim,true,2,731.2000000476837,1,0,1,91572,WMM1,859991,false,false,1009,image-keyboard-response,12
true,7,2,2,1,false,z,false,false,0.0-2.0-0.33-0.303-3.303,0,0,0,68,false,stim,true,2,999.3000001907349,1,0,2,91572,WMM1,862523,false,false,1012,image-keyboard-response,13
true,7,0,2,2,false,d,false,true,0.0-2.0-0.33-0.304-3.304,0,0,0,81,false,stim,true,0,572.2000000476837,1,0,0,91572,WMM1,864626,false,true,1015,image-keyboard-response,14
true,7,0,2,1,false,z,true,false,0.0-2.0-0.33-0.305-3.305,0,0,0,81,false,stim,false,2,375.40000009536743,1,0,2,91572,WMM1,866530,false,false,1018,image-keyboard-response,15
true,7,0,2,2,false,d,false,false,0.0-2.0-0.34-0.306-3.306,0,0,0,81,false,stim,true,0,612.7000000476837,1,0,0,91572,WMM1,868681,false,false,1021,image-keyboard-response,16
true,7,1,2,1,true,z,false,true,0.0-2.0-0.34-0.307-3.307,0,0,0,90,false,stim,false,2,897.7999999523163,1,0,2,91572,WMM1,871112,false,false,1024,image-keyboard-response,17
true,7,2,2,0,false,q,false,false,0.0-2.0-0.34-0.308-3.308,0,0,0,68,false,stim,true,2,601.7000000476837,1,0,1,91572,WMM1,873231,false,false,1027,image-keyboard-response,18
true,7,1,2,0,false,q,true,false,0.0-2.0-0.34-0.309-3.309,0,0,0,90,false,stim,false,2,1209.5,1,0,1,91572,WMM1,875969,false,false,1030,image-keyboard-response,19
true,7,1,2,1,true,z,false,true,0.0-2.0-0.34-0.310-3.310,0,0,0,90,false,stim,false,2,766.8999998569489,1,0,2,91572,WMM1,878261,false,false,1033,image-keyboard-response,20
true,7,1,2,1,true,z,false,true,0.0-2.0-0.34-0.311-3.311,0,0,0,90,false,stim,false,2,576.2999999523163,1,0,2,91572,WMM1,880368,false,false,1036,image-keyboard-response,21
true,7,0,2,2,false,d,false,false,0.0-2.0-0.34-0.312-3.312,0,0,0,81,false,stim,true,0,820.7999999523163,1,0,0,91572,WMM1,882710,false,false,1039,image-keyboard-response,22
true,7,0,2,0,true,q,false,true,0.0-2.0-0.34-0.313-3.313,0,0,0,81,false,stim,false,2,456.2999999523163,1,0,1,91572,WMM1,884693,false,false,1042,image-keyboard-response,23
true,7,2,2,2,true,d,false,true,0.0-2.0-0.34-0.314-3.314,0,0,0,68,false,stim,false,0,833.2000000476837,1,0,0,91572,WMM1,887050,false,false,1045,image-keyboard-response,24
true,7,0,2,0,true,q,false,true,0.0-2.0-0.35-0.315-3.315,0,0,0,81,false,stim,false,2,807.2000000476837,1,0,1,91572,WMM1,889372,false,false,1048,image-keyboard-response,25
true,7,1,2,1,true,z,false,false,0.0-2.0-0.35-0.316-3.316,0,0,0,90,false,stim,false,2,919.4000000953674,1,0,2,91572,WMM1,891816,false,true,1051,image-keyboard-response,26
true,7,1,2,1,true,z,false,true,0.0-2.0-0.35-0.317-3.317,0,0,0,90,false,stim,false,2,573.0,1,0,2,91572,WMM1,893914,false,false,1054,image-keyboard-response,27
true,7,0,2,0,true,q,false,true,0.0-2.0-0.35-0.318-3.318,0,0,0,81,false,stim,false,2,1100.7000000476837,1,0,1,91572,WMM1,896540,false,false,1057,image-keyboard-response,28
true,7,2,2,2,true,d,false,true,0.0-2.0-0.35-0.319-3.319,0,0,0,68,false,stim,false,0,499.69999980926514,1,0,0,91572,WMM1,898572,false,false,1060,image-keyboard-response,29
true,7,2,2,2,true,d,false,true,0.0-2.0-0.35-0.320-3.320,0,0,0,68,false,stim,false,0,815.0,1,0,0,91572,WMM1,900915,false,false,1063,image-keyboard-response,30
true,7,0,2,0,true,q,false,true,0.0-2.0-0.35-0.321-3.321,0,0,0,81,false,stim,false,2,1191.8999998569489,1,0,1,91572,WMM1,903643,false,false,1066,image-keyboard-response,31
true,7,2,2,2,true,d,false,true,0.0-2.0-0.35-0.322-3.322,0,0,0,68,false,stim,false,0,716.7000000476837,1,0,0,91572,WMM1,905879,false,false,1069,image-keyboard-response,32
true,7,1,2,1,true,z,false,true,0.0-2.0-0.35-0.323-3.323,0,0,0,90,false,stim,false,2,789.2000000476837,1,0,2,91572,WMM1,908186,false,false,1072,image-keyboard-response,33
true,7,2,2,2,true,d,false,false,0.0-2.0-0.36-0.324-3.324,0,0,0,68,false,stim,false,0,1039.2999999523163,1,0,0,91572,WMM1,910748,false,true,1075,image-keyboard-response,34
true,7,0,2,0,true,q,false,true,0.0-2.0-0.36-0.325-3.325,0,0,0,81,false,stim,false,2,728.5,1,0,1,91572,WMM1,913001,false,false,1078,image-keyboard-response,35
true,7,1,2,1,true,z,false,true,0.0-2.0-0.36-0.326-3.326,0,0,0,90,false,stim,false,2,1251.5,1,0,2,91572,WMM1,915773,false,false,1081,image-keyboard-response,36
true,7,0,2,0,true,q,false,true,0.0-2.0-0.36-0.327-3.327,0,0,0,81,false,stim,false,2,783.7000000476837,1,0,1,91572,WMM1,918071,false,false,1084,image-keyboard-response,37
true,7,2,2,2,true,d,false,true,0.0-2.0-0.36-0.328-3.328,0,0,0,68,false,stim,false,0,629.5999999046326,1,0,0,91572,WMM1,920228,false,false,1087,image-keyboard-response,38
true,7,1,2,1,true,z,false,true,0.0-2.0-0.36-0.329-3.329,0,0,0,90,false,stim,false,2,1159.3000001907349,1,0,2,91572,WMM1,922905,false,false,1090,image-keyboard-response,39
true,8,2,1,1,false,z,false,false,0.0-2.0-0.36-0.330-3.330,0,0,0,68,true,stim,true,2,958.5,1,0,0,91572,WMM1,925384,false,false,1093,image-keyboard-response,1
true,8,1,1,2,false,d,false,false,0.0-2.0-0.36-0.331-3.331,0,0,0,90,false,stim,true,1,1198.8000001907349,1,0,2,91572,WMM1,928107,false,false,1096,image-keyboard-response,2
true,8,0,1,1,false,z,false,false,0.0-2.0-0.36-0.332-3.332,0,0,0,81,false,stim,true,0,870.0,1,0,1,91572,WMM1,930509,false,false,1099,image-keyboard-response,3
true,8,0,1,1,false,z,false,false,0.0-2.0-0.37-0.333-3.333,0,0,0,81,false,stim,true,0,1465.1999998092651,1,0,1,91572,WMM1,933505,false,false,1102,image-keyboard-response,4
true,8,1,1,2,false,d,false,false,0.0-2.0-0.37-0.334-3.334,0,0,0,90,false,stim,true,1,1228.2999999523163,1,0,2,91572,WMM1,936262,false,false,1105,image-keyboard-response,5
true,8,2,1,1,false,z,false,false,0.0-2.0-0.37-0.335-3.335,0,0,0,68,false,stim,true,2,1610.7000000476837,1,0,0,91572,WMM1,939394,false,false,1108,image-keyboard-response,6
true,8,1,1,1,true,z,false,true,0.0-2.0-0.37-0.336-3.336,0,0,0,90,false,stim,false,0,1433.0999999046326,1,0,1,91572,WMM1,942362,false,false,1111,image-keyboard-response,7
true,8,2,1,1,false,z,false,false,0.0-2.0-0.37-0.337-3.337,0,0,0,68,false,stim,true,2,1008.8999998569489,1,0,0,91572,WMM1,944884,false,false,1114,image-keyboard-response,8
true,8,1,1,1,true,z,false,true,0.0-2.0-0.37-0.338-3.338,0,0,0,90,false,stim,false,0,1163.2999999523163,1,0,1,91572,WMM1,947572,false,false,1117,image-keyboard-response,9
true,8,0,1,1,false,z,true,false,0.0-2.0-0.37-0.339-3.339,0,0,0,81,false,stim,false,2,1399.7000000476837,1,0,0,91572,WMM1,950488,false,false,1120,image-keyboard-response,10
true,8,1,1,2,false,d,false,false,0.0-2.0-0.37-0.340-3.340,0,0,0,90,false,stim,true,1,1109.7000000476837,1,0,2,91572,WMM1,953130,false,false,1123,image-keyboard-response,11
true,8,2,1,2,true,d,false,true,0.0-2.0-0.37-0.341-3.341,0,0,0,68,false,stim,false,1,1143.7000000476837,1,0,2,91572,WMM1,955807,false,false,1126,image-keyboard-response,12
true,8,1,1,1,true,z,false,true,0.0-2.0-0.38-0.342-3.342,0,0,0,90,false,stim,false,0,725.0,1,0,1,91572,WMM1,958055,false,false,1129,image-keyboard-response,13
true,8,0,1,1,false,z,true,false,0.0-2.0-0.38-0.343-3.343,0,0,0,81,false,stim,false,2,946.7000000476837,1,0,0,91572,WMM1,960522,false,false,1132,image-keyboard-response,14
true,8,1,1,2,false,d,false,false,0.0-2.0-0.38-0.344-3.344,0,0,0,90,false,stim,true,1,1869.7999999523163,1,0,2,91572,WMM1,963913,false,false,1135,image-keyboard-response,15
true,8,1,1,1,true,z,false,true,0.0-2.0-0.38-0.345-3.345,0,0,0,90,false,stim,false,2,966.2000000476837,1,0,0,91572,WMM1,966402,false,false,1138,image-keyboard-response,16
true,8,2,1,2,true,d,false,true,0.0-2.0-0.38-0.346-3.346,0,0,0,68,false,stim,false,1,845.2999999523163,1,0,2,91572,WMM1,968765,false,false,1141,image-keyboard-response,17
true,8,0,1,1,false,z,false,false,0.0-2.0-0.38-0.347-3.347,0,0,0,81,false,stim,true,0,838.5,1,0,1,91572,WMM1,971136,false,false,1144,image-keyboard-response,18
true,8,2,1,1,false,z,true,false,0.0-2.0-0.38-0.348-3.348,0,0,0,68,false,stim,false,0,1625.0,1,0,1,91572,WMM1,974287,false,false,1147,image-keyboard-response,19
true,8,2,1,1,false,z,false,true,0.0-2.0-0.38-0.349-3.349,0,0,0,68,false,stim,true,2,1306.8999998569489,1,0,0,91572,WMM1,977119,false,true,1150,image-keyboard-response,20
true,8,0,1,2,false,d,true,true,0.0-2.0-0.38-0.350-3.350,0,0,0,81,false,stim,false,1,1155.0999999046326,1,0,2,91572,WMM1,979797,false,true,1153,image-keyboard-response,21
true,8,2,1,1,false,z,false,false,0.0-2.0-0.39-0.351-3.351,0,0,0,68,false,stim,true,2,638.9000000953674,1,0,0,91572,WMM1,981959,false,false,1156,image-keyboard-response,22
true,8,1,1,1,true,z,false,true,0.0-2.0-0.39-0.352-3.352,0,0,0,90,false,stim,false,2,1105.4000000953674,1,0,0,91572,WMM1,984590,false,false,1159,image-keyboard-response,23
true,8,1,1,1,true,z,false,true,0.0-2.0-0.39-0.353-3.353,0,0,0,90,false,stim,false,2,683.0,1,0,0,91572,WMM1,986799,false,false,1162,image-keyboard-response,24
true,8,0,1,1,false,z,false,false,0.0-2.0-0.39-0.354-3.354,0,0,0,81,false,stim,true,0,924.6000001430511,1,0,1,91572,WMM1,989255,false,false,1165,image-keyboard-response,25
true,8,2,1,2,true,d,false,true,0.0-2.0-0.39-0.355-3.355,0,0,0,68,false,stim,false,1,830.1999998092651,1,0,2,91572,WMM1,991608,false,false,1168,image-keyboard-response,26
true,8,2,1,2,true,d,false,true,0.0-2.0-0.39-0.356-3.356,0,0,0,68,false,stim,false,1,544.2999999523163,1,0,2,91572,WMM1,993676,false,false,1171,image-keyboard-response,27
true,8,1,1,1,true,z,false,true,0.0-2.0-0.39-0.357-3.357,0,0,0,90,false,stim,false,0,636.1999998092651,1,0,1,91572,WMM1,995847,false,false,1174,image-keyboard-response,28
true,8,1,1,1,true,z,false,true,0.0-2.0-0.39-0.358-3.358,0,0,0,90,false,stim,false,0,779.2999999523163,1,0,1,91572,WMM1,998154,false,false,1177,image-keyboard-response,29
true,8,2,1,2,true,d,false,true,0.0-2.0-0.39-0.359-3.359,0,0,0,68,false,stim,false,1,941.7000000476837,1,0,2,91572,WMM1,1000626,false,false,1180,image-keyboard-response,30
true,8,2,1,2,true,d,false,true,0.0-2.0-0.40-0.360-3.360,0,0,0,68,false,stim,false,1,677.0,1,0,2,91572,WMM1,1002830,false,false,1183,image-keyboard-response,31
true,8,0,1,1,false,z,true,false,0.0-2.0-0.40-0.361-3.361,0,0,0,81,false,stim,false,2,962.4000000953674,1,0,0,91572,WMM1,1005327,false,false,1186,image-keyboard-response,32
true,8,1,1,1,true,z,false,true,0.0-2.0-0.40-0.362-3.362,0,0,0,90,false,stim,false,0,975.5,1,0,1,91572,WMM1,1007824,false,false,1189,image-keyboard-response,33
true,8,0,1,1,false,z,true,false,0.0-2.0-0.40-0.363-3.363,0,0,0,81,false,stim,false,2,1278.5,1,0,0,91572,WMM1,1010620,false,false,1192,image-keyboard-response,34
true,8,1,1,1,true,z,false,true,0.0-2.0-0.40-0.364-3.364,0,0,0,90,false,stim,false,0,640.0,1,0,1,91572,WMM1,1012784,false,false,1195,image-keyboard-response,35
true,8,2,1,1,false,z,false,false,0.0-2.0-0.40-0.365-3.365,0,0,0,68,false,stim,true,2,1229.7000000476837,1,0,0,91572,WMM1,1015539,false,false,1198,image-keyboard-response,36
true,8,1,1,2,false,d,false,false,0.0-2.0-0.40-0.366-3.366,0,0,0,90,false,stim,true,1,932.4000000953674,1,0,2,91572,WMM1,1018012,false,false,1201,image-keyboard-response,37
true,8,1,1,1,true,z,false,true,0.0-2.0-0.40-0.367-3.367,0,0,0,90,false,stim,false,0,981.8999998569489,1,0,1,91572,WMM1,1020514,false,false,1204,image-keyboard-response,38
true,8,0,1,2,false,d,true,false,0.0-2.0-0.40-0.368-3.368,0,0,0,81,false,stim,false,1,885.7000000476837,1,0,2,91572,WMM1,1022921,false,false,1207,image-keyboard-response,39
true,9,2,2,1,false,z,false,false,0.0-2.0-0.41-0.369-3.369,0,0,0,68,true,stim,true,2,894.9000000953674,1,0,2,91572,WMM1,1025343,false,false,1210,image-keyboard-response,1
true,9,1,2,0,false,q,false,false,0.0-2.0-0.41-0.370-3.370,0,0,0,90,false,stim,true,1,824.2000000476837,1,0,1,91572,WMM1,1027685,false,false,1213,image-keyboard-response,2
true,9,0,2,2,false,d,true,false,0.0-2.0-0.41-0.371-3.371,0,0,0,81,false,stim,false,1,1146.8000001907349,1,0,0,91572,WMM1,1030356,false,false,1216,image-keyboard-response,3
true,9,2,2,0,false,q,true,true,0.0-2.0-0.41-0.372-3.372,0,0,0,68,false,stim,false,1,1192.4000000953674,1,0,1,91572,WMM1,1033079,false,true,1219,image-keyboard-response,4
true,9,1,2,2,false,d,false,false,0.0-2.0-0.41-0.373-3.373,0,0,0,90,false,stim,true,1,722.7000000476837,1,0,0,91572,WMM1,1035326,false,false,1222,image-keyboard-response,5
true,9,0,2,2,false,d,true,false,0.0-2.0-0.41-0.374-3.374,0,0,0,81,false,stim,false,1,1221.2000000476837,1,0,0,91572,WMM1,1038073,false,false,1225,image-keyboard-response,6
true,9,0,2,1,false,z,true,false,0.0-2.0-0.41-0.375-3.375,0,0,0,81,false,stim,false,2,1114.0,1,0,2,91572,WMM1,1040715,false,false,1228,image-keyboard-response,7
true,9,1,2,1,true,z,false,true,0.0-2.0-0.41-0.376-3.376,0,0,0,90,false,stim,false,2,1186.0,1,0,2,91572,WMM1,1043431,false,false,1231,image-keyboard-response,8
true,9,2,2,0,false,q,true,false,0.0-2.0-0.41-0.377-3.377,0,0,0,68,false,stim,false,1,1288.5,1,0,1,91572,WMM1,1046248,false,false,1234,image-keyboard-response,9
true,9,1,2,1,true,z,false,true,0.0-2.0-0.42-0.378-3.378,0,0,0,90,false,stim,false,2,1101.3999998569489,1,0,2,91572,WMM1,1048876,false,false,1237,image-keyboard-response,10
true,9,2,2,0,false,q,true,false,0.0-2.0-0.42-0.379-3.379,0,0,0,68,false,stim,false,1,968.7000000476837,1,0,1,91572,WMM1,1051373,false,false,1240,image-keyboard-response,11
true,9,2,2,2,true,d,false,true,0.0-2.0-0.42-0.380-3.380,0,0,0,68,false,stim,false,1,1052.5,1,0,0,91572,WMM1,1053954,false,false,1243,image-keyboard-response,12
true,9,2,2,2,true,d,false,false,0.0-2.0-0.42-0.381-3.381,0,0,0,68,false,stim,false,1,593.7999999523163,1,0,0,91572,WMM1,1056077,false,true,1246,image-keyboard-response,13
true,9,0,2,1,false,z,true,true,0.0-2.0-0.42-0.382-3.382,0,0,0,81,false,stim,false,2,1306.5,1,0,2,91572,WMM1,1058905,false,true,1249,image-keyboard-response,14
true,9,1,2,0,false,q,false,false,0.0-2.0-0.42-0.383-3.383,0,0,0,90,false,stim,true,1,925.7999999523163,1,0,1,91572,WMM1,1061356,false,false,1252,image-keyboard-response,15
true,9,2,2,2,true,d,false,false,0.0-2.0-0.42-0.384-3.384,0,0,0,68,false,stim,false,1,828.2000000476837,1,0,0,91572,WMM1,1063718,false,true,1255,image-keyboard-response,16
true,9,1,2,0,false,q,false,false,0.0-2.0-0.42-0.385-3.385,0,0,0,90,false,stim,true,1,1214.1000001430511,1,0,1,91572,WMM1,1066450,false,false,1258,image-keyboard-response,17
true,9,2,2,1,false,z,false,false,0.0-2.0-0.42-0.386-3.386,0,0,0,68,false,stim,true,2,1121.3999998569489,1,0,2,91572,WMM1,1069092,false,false,1261,image-keyboard-response,18
true,9,0,2,1,false,z,true,false,0.0-2.0-0.43-0.387-3.387,0,0,0,81,false,stim,false,2,1909.7999999523163,1,0,2,91572,WMM1,1072528,false,false,1264,image-keyboard-response,19
true,9,2,2,1,false,z,false,false,0.0-2.0-0.43-0.388-3.388,0,0,0,68,false,stim,true,2,790.5999999046326,1,0,2,91572,WMM1,1074851,false,false,1267,image-keyboard-response,20
true,9,1,2,2,false,d,false,false,0.0-2.0-0.43-0.389-3.389,0,0,0,90,false,stim,true,1,839.0,1,0,0,91572,WMM1,1077218,false,false,1270,image-keyboard-response,21
true,9,2,2,0,false,q,true,false,0.0-2.0-0.43-0.390-3.390,0,0,0,68,false,stim,false,1,1108.8999998569489,1,0,1,91572,WMM1,1079852,false,false,1273,image-keyboard-response,22
true,9,0,2,0,true,q,false,true,0.0-2.0-0.43-0.391-3.391,0,0,0,81,false,stim,false,1,1455.1999998092651,1,0,1,91572,WMM1,1082842,false,false,1276,image-keyboard-response,23
true,9,2,2,0,false,q,true,false,0.0-2.0-0.43-0.392-3.392,0,0,0,68,false,stim,false,1,1418.3999998569489,1,0,1,91572,WMM1,1085789,false,false,1279,image-keyboard-response,24
true,9,1,2,1,true,z,false,false,0.0-2.0-0.43-0.393-3.393,0,0,0,90,false,stim,false,2,787.5999999046326,1,0,2,91572,WMM1,1088093,false,true,1282,image-keyboard-response,25
true,9,2,2,2,true,d,false,true,0.0-2.0-0.43-0.394-3.394,0,0,0,68,false,stim,false,1,1153.5,1,0,0,91572,WMM1,1090770,false,false,1285,image-keyboard-response,26
true,9,2,2,2,true,d,false,true,0.0-2.0-0.43-0.395-3.395,0,0,0,68,false,stim,false,1,587.2000000476837,1,0,0,91572,WMM1,1092883,false,false,1288,image-keyboard-response,27
true,9,2,2,2,true,d,false,true,0.0-2.0-0.44-0.396-3.396,0,0,0,68,false,stim,false,1,1085.6000001430511,1,0,0,91572,WMM1,1095499,false,false,1291,image-keyboard-response,28
true,9,1,2,1,true,z,false,true,0.0-2.0-0.44-0.397-3.397,0,0,0,90,false,stim,false,2,1193.4000000953674,1,0,2,91572,WMM1,1098221,false,false,1294,image-keyboard-response,29
true,9,0,2,0,true,q,false,true,0.0-2.0-0.44-0.398-3.398,0,0,0,81,false,stim,false,1,481.40000009536743,1,0,1,91572,WMM1,1100239,false,false,1297,image-keyboard-response,30
true,9,1,2,1,true,z,false,true,0.0-2.0-0.44-0.399-3.399,0,0,0,90,false,stim,false,2,810.6000001430511,1,0,2,91572,WMM1,1102582,false,false,1300,image-keyboard-response,31
true,9,2,2,2,true,d,false,true,0.0-2.0-0.44-0.400-3.400,0,0,0,68,false,stim,false,1,821.3999998569489,1,0,0,91572,WMM1,1104939,false,false,1303,image-keyboard-response,32
true,9,1,2,1,true,z,false,true,0.0-2.0-0.44-0.401-3.401,0,0,0,90,false,stim,false,2,882.2000000476837,1,0,2,91572,WMM1,1107351,false,false,1306,image-keyboard-response,33
true,9,2,2,2,true,d,false,true,0.0-2.0-0.44-0.402-3.402,0,0,0,68,false,stim,false,1,844.2999999523163,1,0,0,91572,WMM1,1109728,false,false,1309,image-keyboard-response,34
true,9,0,2,0,true,q,false,true,0.0-2.0-0.44-0.403-3.403,0,0,0,81,false,stim,false,1,609.8999998569489,1,0,1,91572,WMM1,1111870,false,false,1312,image-keyboard-response,35
true,9,0,2,0,true,q,false,true,0.0-2.0-0.44-0.404-3.404,0,0,0,81,false,stim,false,1,566.5,1,1,1,91572,WMM1,1113959,false,false,1315,image-keyboard-response,36
true,9,0,2,0,true,q,false,true,0.0-2.0-0.45-0.405-3.405,0,0,0,81,false,stim,false,1,626.7000000476837,1,1,1,91572,WMM1,1116115,false,false,1318,image-keyboard-response,37
true,9,2,2,2,true,d,false,true,0.0-2.0-0.45-0.406-3.406,0,0,0,68,false,stim,false,1,653.1000001430511,1,0,0,91572,WMM1,1118294,false,false,1321,image-keyboard-response,38
true,9,0,2,0,true,q,false,true,0.0-2.0-0.45-0.407-3.407,0,0,0,81,false,stim,false,1,782.5999999046326,1,1,1,91572,WMM1,1120601,false,false,1324,image-keyboard-response,39
true,9,1,2,1,true,z,false,true,0.0-2.0-0.45-0.408-3.408,0,0,0,90,false,stim,false,2,1012.0999999046326,1,0,2,91572,WMM1,1123134,false,false,1327,image-keyboard-response,40
true,9,0,2,0,true,q,false,true,0.0-2.0-0.45-0.409-3.409,0,0,0,81,false,stim,false,1,1429.7999999523163,1,1,1,91572,WMM1,1126082,false,false,1330,image-keyboard-response,41
true,9,2,2,2,true,d,false,true,0.0-2.0-0.45-0.410-3.410,0,0,0,68,false,stim,false,1,929.0,1,0,0,91572,WMM1,1128529,false,false,1333,image-keyboard-response,42
true,9,2,2,2,true,d,false,true,0.0-2.0-0.45-0.411-3.411,0,0,0,68,false,stim,false,1,1206.7000000476837,1,0,0,91572,WMM1,1131266,false,false,1336,image-keyboard-response,43
true,9,1,2,1,true,z,false,true,0.0-2.0-0.45-0.412-3.412,0,0,0,90,false,stim,false,2,1675.2000000476837,1,0,2,91572,WMM1,1134468,false,false,1339,image-keyboard-response,44
true,9,1,2,1,true,z,false,true,0.0-2.0-0.45-0.413-3.413,0,0,0,90,false,stim,false,2,1404.8999998569489,1,0,2,91572,WMM1,1137391,false,false,1342,image-keyboard-response,45
true,10,0,3,0,true,q,false,true,0.0-2.0-0.46-0.414-3.414,0,1,0,81,true,stim,false,0,1197.9000000953674,1,1,1,91572,WMM1,1140118,false,false,1345,image-keyboard-response,1
true,10,1,3,2,false,d,false,false,0.0-2.0-0.46-0.415-3.415,0,1,0,90,false,stim,true,1,1477.5,1,0,2,91572,WMM1,1143130,false,false,1348,image-keyboard-response,2
true,10,1,3,2,false,d,false,false,0.0-2.0-0.46-0.416-3.416,0,1,0,90,false,stim,true,1,750.5999999046326,1,0,2,91572,WMM1,1145412,false,false,1351,image-keyboard-response,3
true,10,0,3,0,true,q,false,true,0.0-2.0-0.46-0.417-3.417,0,1,0,81,false,stim,false,0,1203.2000000476837,1,1,1,91572,WMM1,1148155,false,false,1354,image-keyboard-response,4
true,10,2,3,2,true,d,false,true,0.0-2.0-0.46-0.418-3.418,0,1,0,68,false,stim,false,1,841.6000001430511,1,0,2,91572,WMM1,1150523,false,false,1357,image-keyboard-response,5
true,10,1,3,1,true,z,false,true,0.0-2.0-0.46-0.419-3.419,0,1,0,90,false,stim,false,2,893.2999999523163,1,0,0,91572,WMM1,1152944,false,false,1360,image-keyboard-response,6
true,10,0,3,0,true,q,false,true,0.0-2.0-0.46-0.420-3.420,0,1,0,81,false,stim,false,0,1337.8999998569489,1,1,1,91572,WMM1,1155801,false,false,1363,image-keyboard-response,7
true,10,2,3,1,false,z,false,false,0.0-2.0-0.46-0.421-3.421,0,1,0,68,false,stim,true,2,1392.7000000476837,1,0,0,91572,WMM1,1158720,false,false,1366,image-keyboard-response,8
true,10,1,3,1,true,z,false,true,0.0-2.0-0.46-0.422-3.422,0,1,0,90,false,stim,false,2,727.7000000476837,1,0,0,91572,WMM1,1160967,false,false,1369,image-keyboard-response,9
true,10,1,3,0,false,q,true,true,0.0-2.0-0.47-0.423-3.423,0,1,0,90,false,stim,false,0,912.2999999523163,1,1,1,91572,WMM1,1163399,false,true,1372,image-keyboard-response,10
true,10,0,3,2,false,d,true,false,0.0-2.0-0.47-0.424-3.424,0,1,0,81,false,stim,false,1,1162.5999999046326,1,0,2,91572,WMM1,1166082,false,false,1375,image-keyboard-response,11
true,10,2,3,0,false,q,true,false,0.0-2.0-0.47-0.425-3.425,0,1,0,68,false,stim,false,0,809.7999999523163,1,1,1,91572,WMM1,1168424,false,false,1378,image-keyboard-response,12
true,10,2,3,2,true,d,false,true,0.0-2.0-0.47-0.426-3.426,0,1,0,68,false,stim,false,1,743.4000000953674,1,0,2,91572,WMM1,1170687,false,false,1381,image-keyboard-response,13
true,10,1,3,0,false,q,true,true,0.0-2.0-0.47-0.427-3.427,0,1,0,90,false,stim,false,0,737.4000000953674,1,1,1,91572,WMM1,1172950,false,true,1384,image-keyboard-response,14
true,10,0,3,1,false,z,true,true,0.0-2.0-0.47-0.428-3.428,0,1,0,81,false,stim,false,2,784.2999999523163,1,0,0,91572,WMM1,1175263,false,true,1387,image-keyboard-response,15
true,10,0,3,1,false,z,true,false,0.0-2.0-0.47-0.429-3.429,0,1,0,81,false,stim,false,2,670.3999998569489,1,0,0,91572,WMM1,1177462,false,false,1390,image-keyboard-response,16
true,10,0,3,1,false,z,true,false,0.0-2.0-0.47-0.430-3.430,0,1,0,81,false,stim,false,2,1404.5,1,0,0,91572,WMM1,1180392,false,false,1393,image-keyboard-response,17
true,10,2,3,2,true,d,false,true,0.0-2.0-0.47-0.431-3.431,0,1,0,68,false,stim,false,1,685.5999999046326,1,0,2,91572,WMM1,1182606,false,false,1396,image-keyboard-response,18
true,10,1,3,0,false,q,true,false,0.0-2.0-0.48-0.432-3.432,0,1,0,90,false,stim,false,0,1259.2000000476837,1,1,1,91572,WMM1,1185394,false,false,1399,image-keyboard-response,19
true,10,1,3,1,true,z,false,true,0.0-2.0-0.48-0.433-3.433,0,1,0,90,false,stim,false,2,1597.5,1,0,0,91572,WMM1,1188510,false,false,1402,image-keyboard-response,20
true,10,1,3,1,true,z,false,true,0.0-2.0-0.48-0.434-3.434,0,1,0,90,false,stim,false,2,580.0999999046326,1,0,0,91572,WMM1,1190626,false,false,1405,image-keyboard-response,21
true,10,1,3,1,true,z,false,true,0.0-2.0-0.48-0.435-3.435,0,1,0,90,false,stim,false,2,689.6000001430511,1,0,0,91572,WMM1,1192850,false,false,1408,image-keyboard-response,22
true,10,0,3,0,true,q,false,true,0.0-2.0-0.48-0.436-3.436,0,1,0,81,false,stim,false,0,1071.5,1,1,1,91572,WMM1,1195443,false,false,1411,image-keyboard-response,23
true,10,2,3,2,true,d,false,true,0.0-2.0-0.48-0.437-3.437,0,1,0,68,false,stim,false,1,978.5,1,0,2,91572,WMM1,1197950,false,false,1414,image-keyboard-response,24
true,10,2,3,2,true,d,false,true,0.0-2.0-0.48-0.438-3.438,0,1,0,68,false,stim,false,1,1602.7000000476837,1,0,2,91572,WMM1,1201102,false,false,1417,image-keyboard-response,25
true,10,2,3,2,true,d,false,true,0.0-2.0-0.48-0.439-3.439,0,1,0,68,false,stim,false,1,1050.6000001430511,1,0,2,91572,WMM1,1203685,false,false,1420,image-keyboard-response,26
true,10,0,3,0,true,q,false,true,0.0-2.0-0.48-0.440-3.440,0,1,0,81,false,stim,false,0,642.2999999523163,1,1,1,91572,WMM1,1205856,false,false,1423,image-keyboard-response,27
true,10,0,3,0,true,q,false,true,0.0-2.0-0.49-0.441-3.441,0,1,0,81,false,stim,false,0,508.90000009536743,1,0,1,91572,WMM1,1207883,false,false,1426,image-keyboard-response,28
true,10,1,3,1,true,z,false,true,0.0-2.0-0.49-0.442-3.442,0,1,0,90,false,stim,false,2,1576.2999999523163,1,0,0,91572,WMM1,1210992,false,false,1429,image-keyboard-response,29
true,10,2,3,2,true,d,false,true,0.0-2.0-0.49-0.443-3.443,0,1,0,68,false,stim,false,1,895.2000000476837,1,0,2,91572,WMM1,1213414,false,false,1432,image-keyboard-response,30
true,10,2,3,1,false,z,false,false,0.0-2.0-0.49-0.444-3.444,0,1,0,68,false,stim,true,2,1927.0999999046326,1,0,0,91572,WMM1,1216870,false,false,1435,image-keyboard-response,31
true,10,0,3,1,false,z,true,true,0.0-2.0-0.49-0.445-3.445,0,1,0,81,false,stim,false,2,2191.899999856949,1,0,0,91572,WMM1,1220596,false,true,1438,image-keyboard-response,32
true,10,2,3,0,false,q,true,false,0.0-2.0-0.49-0.446-3.446,0,1,0,68,false,stim,false,0,628.9000000953674,1,0,1,91572,WMM1,1222749,false,false,1441,image-keyboard-response,33
true,10,1,3,0,false,q,true,false,0.0-2.0-0.49-0.447-3.447,0,1,0,90,false,stim,false,0,904.0,1,0,1,91572,WMM1,1225170,false,false,1444,image-keyboard-response,34
true,10,0,3,2,false,d,true,false,0.0-2.0-0.49-0.448-3.448,0,1,0,81,false,stim,false,1,809.5,1,0,2,91572,WMM1,1227508,false,false,1447,image-keyboard-response,35
true,10,1,3,2,false,d,false,false,0.0-2.0-0.49-0.449-3.449,0,1,0,90,false,stim,true,1,2395.7000000476837,1,0,2,91572,WMM1,1231426,false,false,1450,image-keyboard-response,36
true,10,2,3,2,true,d,false,true,0.0-2.0-0.50-0.450-3.450,0,1,0,68,false,stim,false,1,1855.7999999523163,1,0,2,91572,WMM1,1234814,false,false,1453,image-keyboard-response,37
true,11,1,4,0,false,q,true,false,0.0-2.0-0.50-0.451-3.451,0,0,0,90,true,stim,false,2,827.6999998092651,1,0,2,91572,WMM1,1237167,false,false,1456,image-keyboard-response,1
true,11,0,4,2,false,d,false,false,0.0-2.0-0.50-0.452-3.452,0,0,0,81,false,stim,true,0,1045.1000001430511,1,0,1,91572,WMM1,1239744,false,false,1459,image-keyboard-response,2
true,11,2,4,0,false,q,true,false,0.0-2.0-0.50-0.453-3.453,0,0,0,68,false,stim,false,1,606.2000000476837,1,0,0,91572,WMM1,1241872,false,false,1462,image-keyboard-response,3
true,11,2,4,2,true,d,false,true,0.0-2.0-0.50-0.454-3.454,0,0,0,68,false,stim,false,0,855.2999999523163,1,0,1,91572,WMM1,1244253,false,false,1465,image-keyboard-response,4
true,11,1,4,0,false,q,true,false,0.0-2.0-0.50-0.455-3.455,0,0,0,90,false,stim,false,2,1220.5,1,0,2,91572,WMM1,1247001,false,false,1468,image-keyboard-response,5
true,11,2,4,2,true,d,false,true,0.0-2.0-0.50-0.456-3.456,0,0,0,68,false,stim,false,0,1121.6000001430511,1,0,1,91572,WMM1,1249647,false,false,1471,image-keyboard-response,6
true,11,2,4,0,false,q,true,false,0.0-2.0-0.50-0.457-3.457,0,0,0,68,false,stim,false,1,1220.0,1,0,0,91572,WMM1,1252395,false,false,1474,image-keyboard-response,7
true,11,0,4,0,true,q,false,true,0.0-2.0-0.50-0.458-3.458,0,0,0,81,false,stim,false,1,823.9000000953674,1,0,0,91572,WMM1,1254747,false,false,1477,image-keyboard-response,8
true,11,1,4,2,false,d,true,false,0.0-2.0-0.51-0.459-3.459,0,0,0,90,false,stim,false,0,926.0999999046326,1,0,1,91572,WMM1,1257190,false,false,1480,image-keyboard-response,9
true,11,2,4,2,true,d,false,true,0.0-2.0-0.51-0.460-3.460,0,0,0,68,false,stim,false,0,624.5,1,0,1,91572,WMM1,1259342,false,false,1483,image-keyboard-response,10
true,11,0,4,0,true,q,false,true,0.0-2.0-0.51-0.461-3.461,0,0,0,81,false,stim,false,1,594.4000000953674,1,0,0,91572,WMM1,1261455,false,false,1486,image-keyboard-response,11
true,11,2,4,2,true,d,false,false,0.0-2.0-0.51-0.462-3.462,0,0,0,68,false,stim,false,0,477.2000000476837,1,0,1,91572,WMM1,1263451,false,true,1489,image-keyboard-response,12
true,11,1,4,0,false,q,true,false,0.0-2.0-0.51-0.463-3.463,0,0,0,90,false,stim,false,2,751.7000000476837,1,0,2,91572,WMM1,1265730,false,false,1492,image-keyboard-response,13
true,11,0,4,0,true,q,false,true,0.0-2.0-0.51-0.464-3.464,0,0,0,81,false,stim,false,1,1214.2000000476837,1,0,0,91572,WMM1,1268472,false,false,1495,image-keyboard-response,14
true,11,2,4,0,false,q,false,false,0.0-2.0-0.51-0.465-3.465,0,0,0,68,false,stim,true,2,1266.7000000476837,1,0,2,91572,WMM1,1271273,false,false,1498,image-keyboard-response,15
true,11,2,4,0,false,q,false,false,0.0-2.0-0.51-0.466-3.466,0,0,0,68,false,stim,true,2,921.2999999523163,1,0,2,91572,WMM1,1273731,false,false,1501,image-keyboard-response,16
true,11,0,4,0,true,q,false,true,0.0-2.0-0.51-0.467-3.467,0,0,0,81,false,stim,false,1,931.1999998092651,1,0,0,91572,WMM1,1276194,false,false,1504,image-keyboard-response,17
true,11,0,4,0,true,q,false,true,0.0-2.0-0.52-0.468-3.468,0,0,0,81,false,stim,false,1,782.6999998092651,1,0,0,91572,WMM1,1278510,false,false,1507,image-keyboard-response,18
true,11,1,4,0,false,q,true,false,0.0-2.0-0.52-0.469-3.469,0,0,0,90,false,stim,false,2,770.6000001430511,1,0,2,91572,WMM1,1280813,false,false,1510,image-keyboard-response,19
true,11,0,4,2,false,d,false,false,0.0-2.0-0.52-0.470-3.470,0,0,0,81,false,stim,true,0,907.8000001907349,1,0,1,91572,WMM1,1283250,false,false,1513,image-keyboard-response,20
true,11,0,4,0,true,q,false,false,0.0-2.0-0.52-0.471-3.471,0,0,0,81,false,stim,false,1,422.7000000476837,1,0,0,91572,WMM1,1285209,false,true,1516,image-keyboard-response,21
true,11,2,4,2,true,d,false,true,0.0-2.0-0.52-0.472-3.472,0,0,0,68,false,stim,false,0,1301.5999999046326,1,0,1,91572,WMM1,1288040,false,false,1519,image-keyboard-response,22
true,11,0,4,0,true,q,false,true,0.0-2.0-0.52-0.473-3.473,0,0,0,81,false,stim,false,2,803.7000000476837,1,0,2,91572,WMM1,1290372,false,false,1522,image-keyboard-response,23
true,11,0,4,0,true,q,false,true,0.0-2.0-0.52-0.474-3.474,0,0,0,81,false,stim,false,1,386.40000009536743,1,0,0,91572,WMM1,1292272,false,false,1525,image-keyboard-response,24
true,11,2,4,0,false,q,false,false,0.0-2.0-0.52-0.475-3.475,0,0,0,68,false,stim,true,2,1933.6999998092651,1,0,2,91572,WMM1,1295732,false,false,1528,image-keyboard-response,25
true,11,2,4,2,true,d,false,true,0.0-2.0-0.52-0.476-3.476,0,0,0,68,false,stim,false,0,839.3000001907349,1,0,1,91572,WMM1,1298101,false,false,1531,image-keyboard-response,26
true,11,0,4,0,true,q,false,true,0.0-2.0-0.53-0.477-3.477,0,0,0,81,false,stim,false,2,467.90000009536743,1,0,2,91572,WMM1,1300093,false,false,1534,image-keyboard-response,27
true,11,0,4,0,true,q,false,true,0.0-2.0-0.53-0.478-3.478,0,0,0,81,false,stim,false,2,776.2999999523163,1,0,2,91572,WMM1,1302395,false,false,1537,image-keyboard-response,28
true,11,0,4,0,true,q,false,true,0.0-2.0-0.53-0.479-3.479,0,0,0,81,false,stim,false,1,650.7000000476837,1,0,0,91572,WMM1,1304573,false,false,1540,image-keyboard-response,29
true,11,0,4,0,true,q,false,true,0.0-2.0-0.53-0.480-3.480,0,0,0,81,false,stim,false,2,477.59999990463257,1,0,2,91572,WMM1,1306577,false,false,1543,image-keyboard-response,30
true,11,0,4,0,true,q,false,true,0.0-2.0-0.53-0.481-3.481,0,0,0,81,false,stim,false,1,517.6000001430511,1,0,0,91572,WMM1,1308615,false,false,1546,image-keyboard-response,31
true,11,0,4,0,true,q,false,false,0.0-2.0-0.53-0.482-3.482,0,0,0,81,false,stim,false,1,420.5,1,0,0,91572,WMM1,1310568,false,true,1549,image-keyboard-response,32
true,11,2,4,2,true,d,false,true,0.0-2.0-0.53-0.483-3.483,0,0,0,68,false,stim,false,0,772.2999999523163,1,0,1,91572,WMM1,1312866,false,false,1552,image-keyboard-response,33
true,11,2,4,2,true,d,false,true,0.0-2.0-0.53-0.484-3.484,0,0,0,68,false,stim,false,0,448.7000000476837,1,0,1,91572,WMM1,1314842,false,false,1555,image-keyboard-response,34
true,11,2,4,2,true,d,false,true,0.0-2.0-0.53-0.485-3.485,0,0,0,68,false,stim,false,0,462.30000019073486,1,0,1,91572,WMM1,1316836,false,false,1558,image-keyboard-response,35
true,11,0,4,0,true,q,false,true,0.0-2.0-0.54-0.486-3.486,0,0,0,81,false,stim,false,1,669.7999999523163,1,0,0,91572,WMM1,1319022,false,false,1561,image-keyboard-response,36
true,11,2,4,2,true,d,false,true,0.0-2.0-0.54-0.487-3.487,0,0,0,68,false,stim,false,0,548.1999998092651,1,0,1,91572,WMM1,1321100,false,false,1564,image-keyboard-response,37
true,11,0,4,0,true,q,false,true,0.0-2.0-0.54-0.488-3.488,0,0,0,81,false,stim,false,1,459.2000000476837,1,0,0,91572,WMM1,1323093,false,false,1567,image-keyboard-response,38
true,12,2,1,0,false,q,false,false,0.0-2.0-0.54-0.489-3.489,0,0,0,68,true,stim,true,2,591.9000000953674,1,0,1,91572,WMM1,1325206,false,false,1570,image-keyboard-response,1
true,12,0,1,1,false,z,false,false,0.0-2.0-0.54-0.490-3.490,0,0,0,81,false,stim,true,0,980.5999999046326,1,0,2,91572,WMM1,1327712,false,false,1573,image-keyboard-response,2
true,12,0,1,1,false,z,false,false,0.0-2.0-0.54-0.491-3.491,0,0,0,81,false,stim,true,0,702.3999998569489,1,0,2,91572,WMM1,1329946,false,false,1576,image-keyboard-response,3
true,12,1,1,1,true,z,false,true,0.0-2.0-0.54-0.492-3.492,0,0,0,90,false,stim,false,0,665.1000001430511,1,0,0,91572,WMM1,1332144,false,false,1579,image-keyboard-response,4
true,12,2,1,0,false,q,false,false,0.0-2.0-0.54-0.493-3.493,0,0,0,68,false,stim,true,2,1139.6999998092651,1,0,1,91572,WMM1,1334815,false,false,1582,image-keyboard-response,5
true,12,0,1,1,false,z,false,false,0.0-2.0-0.54-0.494-3.494,0,0,0,81,false,stim,true,0,916.7000000476837,1,0,2,91572,WMM1,1337257,false,false,1585,image-keyboard-response,6
true,12,2,1,0,false,q,false,true,0.0-2.0-0.55-0.495-3.495,0,0,0,68,false,stim,true,2,958.9000000953674,1,0,1,91572,WMM1,1339746,false,true,1588,image-keyboard-response,7
true,12,1,1,1,true,z,false,true,0.0-2.0-0.55-0.496-3.496,0,0,0,90,false,stim,false,0,1157.0999999046326,1,0,2,91572,WMM1,1342422,false,false,1591,image-keyboard-response,8
true,12,0,1,1,false,z,false,false,0.0-2.0-0.55-0.497-3.497,0,0,0,81,false,stim,true,0,1214.9000000953674,1,0,0,91572,WMM1,1345163,false,false,1594,image-keyboard-response,9
true,12,2,1,0,false,q,false,false,0.0-2.0-0.55-0.498-3.498,0,0,0,68,false,stim,true,2,1392.8999998569489,1,0,1,91572,WMM1,1348090,false,false,1597,image-keyboard-response,10
true,12,1,1,0,false,q,true,false,0.0-2.0-0.55-0.499-3.499,0,0,0,90,false,stim,false,2,746.0,1,0,1,91572,WMM1,1350368,false,false,1600,image-keyboard-response,11
true,12,2,1,1,false,z,true,false,0.0-2.0-0.55-0.500-3.500,0,0,0,68,false,stim,false,0,825.6000001430511,1,0,2,91572,WMM1,1352730,false,false,1603,image-keyboard-response,12
true,12,0,1,1,false,z,false,false,0.0-2.0-0.55-0.501-3.501,0,0,0,81,false,stim,true,0,630.0999999046326,1,0,0,91572,WMM1,1354887,false,false,1606,image-keyboard-response,13
true,12,0,1,1,false,z,false,false,0.0-2.0-0.55-0.502-3.502,0,0,0,81,false,stim,true,0,644.5,1,0,2,91572,WMM1,1357060,false,false,1609,image-keyboard-response,14
true,12,2,1,1,false,z,true,false,0.0-2.0-0.55-0.503-3.503,0,0,0,68,false,stim,false,0,736.2000000476837,1,0,0,91572,WMM1,1359313,false,false,1612,image-keyboard-response,15
true,12,1,1,1,true,z,false,true,0.0-2.0-0.56-0.504-3.504,0,0,0,90,false,stim,false,0,810.9000000953674,1,0,0,91572,WMM1,1361660,false,false,1615,image-keyboard-response,16
true,12,2,1,1,false,z,true,false,0.0-2.0-0.56-0.505-3.505,0,0,0,68,false,stim,false,0,811.4000000953674,1,0,2,91572,WMM1,1363992,false,false,1618,image-keyboard-response,17
true,12,2,1,1,false,z,true,false,0.0-2.0-0.56-0.506-3.506,0,0,0,68,false,stim,false,0,839.7000000476837,1,0,2,91572,WMM1,1366364,false,false,1621,image-keyboard-response,18
true,12,0,1,0,true,q,false,true,0.0-2.0-0.56-0.507-3.507,0,0,0,81,false,stim,false,2,734.8000001907349,1,0,1,91572,WMM1,1368626,false,false,1624,image-keyboard-response,19
true,12,2,1,1,false,z,true,false,0.0-2.0-0.56-0.508-3.508,0,0,0,68,false,stim,false,0,898.9000000953674,1,0,0,91572,WMM1,1371055,false,false,1627,image-keyboard-response,20
true,12,0,1,0,true,q,false,true,0.0-2.0-0.56-0.509-3.509,0,0,0,81,false,stim,false,2,842.5999999046326,1,0,1,91572,WMM1,1373428,false,false,1630,image-keyboard-response,21
true,12,0,1,0,true,q,false,true,0.0-2.0-0.56-0.510-3.510,0,0,0,81,false,stim,false,2,1771.0999999046326,1,0,1,91572,WMM1,1376724,false,false,1633,image-keyboard-response,22
true,12,2,1,1,false,z,true,false,0.0-2.0-0.56-0.511-3.511,0,0,0,68,false,stim,false,0,1167.1000001430511,1,0,2,91572,WMM1,1379416,false,false,1636,image-keyboard-response,23
true,12,1,1,1,true,z,false,true,0.0-2.0-0.56-0.512-3.512,0,0,0,90,false,stim,false,0,1796.0,1,0,0,91572,WMM1,1382741,false,false,1639,image-keyboard-response,24
true,12,2,1,1,false,z,true,false,0.0-2.0-0.57-0.513-3.513,0,0,0,68,false,stim,false,0,871.4000000953674,1,0,0,91572,WMM1,1385149,false,false,1642,image-keyboard-response,25
true,12,0,1,0,true,q,false,true,0.0-2.0-0.57-0.514-3.514,0,0,0,81,false,stim,false,2,1284.7000000476837,1,0,1,91572,WMM1,1387972,false,false,1645,image-keyboard-response,26
true,12,0,1,0,true,q,false,true,0.0-2.0-0.57-0.515-3.515,0,0,0,81,false,stim,false,2,1080.5,1,0,1,91572,WMM1,1390584,false,false,1648,image-keyboard-response,27
true,12,1,1,1,true,z,false,true,0.0-2.0-0.57-0.516-3.516,0,0,0,90,false,stim,false,0,706.0,1,0,0,91572,WMM1,1392820,false,false,1651,image-keyboard-response,28
true,12,2,1,1,false,z,true,false,0.0-2.0-0.57-0.517-3.517,0,0,0,68,false,stim,false,0,625.2999999523163,1,0,2,91572,WMM1,1394974,false,false,1654,image-keyboard-response,29
true,12,1,1,0,false,q,true,false,0.0-2.0-0.57-0.518-3.518,0,0,0,90,false,stim,false,2,469.2999999523163,1,0,1,91572,WMM1,1396982,false,false,1657,image-keyboard-response,30
true,12,1,1,1,true,z,false,true,0.0-2.0-0.57-0.519-3.519,0,0,0,90,false,stim,false,0,1146.0,1,0,0,91572,WMM1,1399653,false,false,1660,image-keyboard-response,31
true,12,2,1,1,false,z,true,false,0.0-2.0-0.57-0.520-3.520,0,0,0,68,false,stim,false,0,581.4000000953674,1,0,2,91572,WMM1,1401771,false,false,1663,image-keyboard-response,32
true,12,2,1,1,false,z,true,false,0.0-2.0-0.57-0.521-3.521,0,0,0,68,false,stim,false,0,467.90000009536743,1,0,2,91572,WMM1,1403774,false,false,1666,image-keyboard-response,33
true,12,1,1,1,true,z,false,true,0.0-2.0-0.58-0.522-3.522,0,0,0,90,false,stim,false,0,856.8000001907349,1,0,0,91572,WMM1,1406162,false,false,1669,image-keyboard-response,34
true,12,1,1,1,true,z,false,true,0.0-2.0-0.58-0.523-3.523,0,0,0,90,false,stim,false,0,369.5,1,0,0,91572,WMM1,1408070,false,false,1672,image-keyboard-response,35
true,12,0,1,0,true,q,false,true,0.0-2.0-0.58-0.524-3.524,0,0,0,81,false,stim,false,2,662.0,1,0,1,91572,WMM1,1410262,false,false,1675,image-keyboard-response,36
true,12,0,1,0,true,q,false,true,0.0-2.0-0.58-0.525-3.525,0,0,0,81,false,stim,false,2,486.2000000476837,1,0,1,91572,WMM1,1412280,false,false,1678,image-keyboard-response,37
true,12,0,1,0,true,q,false,true,0.0-2.0-0.58-0.526-3.526,0,0,0,81,false,stim,false,2,491.2000000476837,1,0,1,91572,WMM1,1414303,false,false,1681,image-keyboard-response,38
true,12,1,1,1,true,z,false,true,0.0-2.0-0.58-0.527-3.527,0,0,0,90,false,stim,false,0,527.0999999046326,1,0,2,91572,WMM1,1416351,false,false,1684,image-keyboard-response,39
true,12,1,1,1,true,z,false,false,0.0-2.0-0.58-0.528-3.528,0,0,0,90,false,stim,false,0,492.59999990463257,1,0,2,91572,WMM1,1418365,false,true,1687,image-keyboard-response,40
true,12,1,1,1,true,z,false,true,0.0-2.0-0.58-0.529-3.529,0,0,0,90,false,stim,false,0,779.0,1,0,0,91572,WMM1,1420671,false,false,1690,image-keyboard-response,41
true,12,1,1,1,true,z,false,false,0.0-2.0-0.58-0.530-3.530,0,0,0,90,false,stim,false,0,899.2999999523163,1,0,2,91572,WMM1,1423089,false,true,1693,image-keyboard-response,42
true,12,1,1,1,true,z,false,true,0.0-2.0-0.59-0.531-3.531,0,0,0,90,false,stim,false,0,530.2999999523163,1,0,2,91572,WMM1,1425146,false,false,1696,image-keyboard-response,43
true,12,1,1,0,false,q,true,false,0.0-2.0-0.59-0.532-3.532,0,0,0,90,false,stim,false,2,677.7999999523163,1,1,1,91572,WMM1,1427359,false,false,1699,image-keyboard-response,44
true,12,0,1,1,false,z,false,false,0.0-2.0-0.59-0.533-3.533,0,0,0,81,false,stim,true,0,458.7999999523163,1,0,0,91572,WMM1,1429337,false,false,1702,image-keyboard-response,45
true,12,0,1,1,false,z,false,false,0.0-2.0-0.59-0.534-3.534,0,0,0,81,false,stim,true,0,406.2000000476837,1,0,0,91572,WMM1,1431270,false,false,1705,image-keyboard-response,46
true,12,1,1,0,false,q,true,false,0.0-2.0-0.59-0.535-3.535,0,0,0,90,false,stim,false,2,1166.8000001907349,1,1,1,91572,WMM1,1433956,false,false,1708,image-keyboard-response,47
true,12,1,1,1,true,z,false,true,0.0-2.0-0.59-0.536-3.536,0,0,0,90,false,stim,false,0,777.2999999523163,1,0,2,91572,WMM1,1436265,false,false,1711,image-keyboard-response,48
true,12,2,1,0,false,q,false,false,0.0-2.0-0.59-0.537-3.537,0,0,0,68,false,stim,true,2,814.1999998092651,1,1,1,91572,WMM1,1438601,false,false,1714,image-keyboard-response,49
true,12,0,1,1,false,z,false,false,0.0-2.0-0.59-0.538-3.538,0,0,0,81,false,stim,true,0,661.8999998569489,1,0,0,91572,WMM1,1440794,false,false,1717,image-keyboard-response,50
true,13,1,3,2,false,d,false,false,0.0-2.0-0.59-0.539-3.539,0,1,0,90,true,stim,true,1,983.7000000476837,1,0,2,91572,WMM1,1443298,false,false,1720,image-keyboard-response,1
true,13,1,3,0,false,q,true,false,0.0-2.0-0.60-0.540-3.540,0,1,0,90,false,stim,false,0,626.5,1,1,1,91572,WMM1,1445459,false,false,1723,image-keyboard-response,2
true,13,2,3,0,false,q,true,false,0.0-2.0-0.60-0.541-3.541,0,1,0,68,false,stim,false,0,922.4000000953674,1,1,1,91572,WMM1,1447898,false,false,1726,image-keyboard-response,3
true,13,2,3,2,true,d,false,true,0.0-2.0-0.60-0.542-3.542,0,1,0,68,false,stim,false,1,694.6999998092651,1,0,0,91572,WMM1,1450120,false,false,1729,image-keyboard-response,4
true,13,0,3,2,false,d,true,false,0.0-2.0-0.60-0.543-3.543,0,1,0,81,false,stim,false,1,736.5,1,0,2,91572,WMM1,1452377,false,false,1732,image-keyboard-response,5
true,13,2,3,2,true,d,false,true,0.0-2.0-0.60-0.544-3.544,0,1,0,68,false,stim,false,1,544.5,1,0,2,91572,WMM1,1454450,false,false,1735,image-keyboard-response,6
true,13,2,3,2,true,d,false,true,0.0-2.0-0.60-0.545-3.545,0,1,0,68,false,stim,false,1,428.2999999523163,1,0,2,91572,WMM1,1456398,false,false,1738,image-keyboard-response,7
true,13,2,3,2,true,d,false,true,0.0-2.0-0.60-0.546-3.546,0,1,0,68,false,stim,false,1,524.7000000476837,1,0,0,91572,WMM1,1458456,false,false,1741,image-keyboard-response,8
true,13,0,3,0,true,q,false,true,0.0-2.0-0.60-0.547-3.547,0,1,0,81,false,stim,false,0,722.6000001430511,1,1,1,91572,WMM1,1460705,false,false,1744,image-keyboard-response,9
true,13,2,3,2,true,d,false,true,0.0-2.0-0.60-0.548-3.548,0,1,0,68,false,stim,false,1,713.2999999523163,1,0,0,91572,WMM1,1462944,false,false,1747,image-keyboard-response,10
true,13,0,3,0,true,q,false,true,0.0-2.0-0.61-0.549-3.549,0,1,0,81,false,stim,false,0,516.4000000953674,1,1,1,91572,WMM1,1464980,false,false,1750,image-keyboard-response,11
true,13,2,3,2,true,d,false,true,0.0-2.0-0.61-0.550-3.550,0,1,0,68,false,stim,false,1,806.8999998569489,1,0,0,91572,WMM1,1467317,false,false,1753,image-keyboard-response,12
true,13,2,3,2,true,d,false,true,0.0-2.0-0.61-0.551-3.551,0,1,0,68,false,stim,false,1,813.0999999046326,1,0,2,91572,WMM1,1469659,false,false,1756,image-keyboard-response,13
true,13,2,3,0,false,q,true,false,0.0-2.0-0.61-0.552-3.552,0,1,0,68,false,stim,false,0,708.5,1,1,1,91572,WMM1,1471897,false,false,1759,image-keyboard-response,14
true,13,2,3,2,true,d,false,true,0.0-2.0-0.61-0.553-3.553,0,1,0,68,false,stim,false,1,671.5,1,0,0,91572,WMM1,1474091,false,false,1762,image-keyboard-response,15
true,13,2,3,2,true,d,false,false,0.0-2.0-0.61-0.554-3.554,0,1,0,68,false,stim,false,1,1243.7999999523163,1,0,2,91572,WMM1,1476862,false,true,1765,image-keyboard-response,16
true,13,2,3,2,true,d,false,true,0.0-2.0-0.61-0.555-3.555,0,1,0,68,false,stim,false,1,769.2000000476837,1,0,0,91572,WMM1,1479164,false,false,1768,image-keyboard-response,17
true,13,0,3,0,true,q,false,false,0.0-2.0-0.61-0.556-3.556,0,1,0,81,false,stim,false,0,1170.9000000953674,1,1,1,91572,WMM1,1481867,false,true,1771,image-keyboard-response,18
true,13,2,3,2,true,d,false,true,0.0-2.0-0.61-0.557-3.557,0,1,0,68,false,stim,false,1,1676.4000000953674,1,0,2,91572,WMM1,1485069,false,false,1774,image-keyboard-response,19
true,13,0,3,0,true,q,false,true,0.0-2.0-0.62-0.558-3.558,0,1,0,81,false,stim,false,0,901.5,1,1,1,91572,WMM1,1487507,false,false,1777,image-keyboard-response,20
true,13,2,3,2,true,d,false,false,0.0-2.0-0.62-0.559-3.559,0,1,0,68,false,stim,false,1,877.5,1,1,0,91572,WMM1,1489910,false,true,1780,image-keyboard-response,21
true,13,2,3,2,true,d,false,true,0.0-2.0-0.62-0.560-3.560,0,1,0,68,false,stim,false,1,741.3000001907349,1,1,0,91572,WMM1,1492177,false,false,1783,image-keyboard-response,22
true,13,0,3,2,false,d,true,false,0.0-2.0-0.62-0.561-3.561,0,1,0,81,false,stim,false,1,833.0999999046326,1,1,2,91572,WMM1,1494530,false,false,1786,image-keyboard-response,23
true,13,0,3,0,true,q,false,true,0.0-2.0-0.62-0.562-3.562,0,1,0,81,false,stim,false,0,623.7000000476837,1,1,1,91572,WMM1,1496683,false,false,1789,image-keyboard-response,24
true,13,0,3,0,true,q,false,false,0.0-2.0-0.62-0.563-3.563,0,1,0,81,false,stim,false,0,1131.5999999046326,1,1,1,91572,WMM1,1499340,false,true,1792,image-keyboard-response,25
true,13,0,3,2,false,d,true,false,0.0-2.0-0.62-0.564-3.564,0,1,0,81,false,stim,false,1,857.5999999046326,1,1,2,91572,WMM1,1501732,false,false,1795,image-keyboard-response,26
true,13,2,3,2,true,d,false,true,0.0-2.0-0.62-0.565-3.565,0,1,0,68,false,stim,false,1,1348.1000001430511,1,1,2,91572,WMM1,1504607,false,false,1798,image-keyboard-response,27
true,13,1,3,2,false,d,false,false,0.0-2.0-0.62-0.566-3.566,0,1,0,90,false,stim,true,1,1033.0,1,1,0,91572,WMM1,1507180,false,false,1801,image-keyboard-response,28
true,13,0,3,2,false,d,true,true,0.0-2.0-0.63-0.567-3.567,0,1,0,81,false,stim,false,1,1109.8000001907349,1,1,0,91572,WMM1,1509812,false,true,1804,image-keyboard-response,29
true,13,0,3,2,false,d,true,false,0.0-2.0-0.63-0.568-3.568,0,1,0,81,false,stim,false,1,810.0,1,1,0,91572,WMM1,1512139,false,false,1807,image-keyboard-response,30
true,14,2,0,2,true,d,false,true,0.0-2.0-0.63-0.569-3.569,1,1,1,68,true,stim,false,2,2444.9000000953674,1,1,2,91572,WMM1,1637900,false,false,1930,image-keyboard-response,1
true,14,1,0,2,false,d,true,false,0.0-2.0-0.63-0.570-3.570,1,1,1,90,false,stim,false,2,675.9000000953674,1,1,0,91572,WMM1,1640098,false,false,1933,image-keyboard-response,2
true,14,2,0,2,true,d,false,true,0.0-2.0-0.63-0.571-3.571,1,1,1,68,false,stim,false,2,743.5999999046326,1,1,2,91572,WMM1,1642360,false,false,1936,image-keyboard-response,3
true,14,0,0,0,true,q,false,true,0.0-2.0-0.63-0.572-3.572,1,1,1,81,false,stim,false,0,945.7999999523163,1,1,1,91572,WMM1,1644833,false,false,1939,image-keyboard-response,4
true,14,2,0,0,false,q,true,false,0.0-2.0-0.63-0.573-3.573,1,1,1,68,false,stim,false,0,949.6000001430511,1,1,1,91572,WMM1,1647314,false,false,1942,image-keyboard-response,5
true,14,2,0,2,true,d,false,true,0.0-2.0-0.63-0.574-3.574,1,1,1,68,false,stim,false,2,1480.5,1,1,2,91572,WMM1,1650326,false,false,1945,image-keyboard-response,6
true,14,0,0,0,true,q,false,false,0.0-2.0-0.63-0.575-3.575,1,1,1,81,false,stim,false,0,1716.3000001907349,1,1,1,91572,WMM1,1653577,false,true,1948,image-keyboard-response,7
true,14,1,0,0,false,q,true,true,0.0-2.0-0.64-0.576-3.576,1,1,1,90,false,stim,false,0,1108.3000001907349,1,1,1,91572,WMM1,1656214,false,true,1951,image-keyboard-response,8
true,14,1,0,0,false,q,true,false,0.0-2.0-0.64-0.577-3.577,1,1,1,90,false,stim,false,0,1683.2999999523163,1,1,1,91572,WMM1,1659421,false,false,1954,image-keyboard-response,9
true,14,2,0,2,true,d,false,true,0.0-2.0-0.64-0.578-3.578,1,1,1,68,false,stim,false,2,1315.7999999523163,1,1,2,91572,WMM1,1662263,false,false,1957,image-keyboard-response,10
true,14,2,0,2,true,d,false,true,0.0-2.0-0.64-0.579-3.579,1,1,1,68,false,stim,false,2,2454.0,1,1,2,91572,WMM1,1666248,false,false,1960,image-keyboard-response,11
true,14,2,0,2,true,d,false,true,0.0-2.0-0.64-0.580-3.580,1,1,1,68,false,stim,false,2,1862.2999999523163,1,1,0,91572,WMM1,1669640,false,false,1963,image-keyboard-response,12
true,14,2,0,0,false,q,true,false,0.0-2.0-0.64-0.581-3.581,1,1,1,68,false,stim,false,0,2508.899999856949,1,1,1,91572,WMM1,1673682,false,false,1966,image-keyboard-response,13
true,14,0,0,2,false,d,true,true,0.0-2.0-0.64-0.582-3.582,1,1,1,81,false,stim,false,2,2856.0,1,1,0,91572,WMM1,1678060,false,true,1969,image-keyboard-response,14
false,14,-1,0,2,false,d,true,false,0.0-2.0-0.64-0.583-3.583,1,1,1,,false,stim,false,2,,1,1,0,91572,WMM1,1682576,false,false,1972,image-keyboard-response,15
true,14,2,0,2,true,d,false,true,0.0-2.0-0.64-0.584-3.584,1,1,1,68,false,stim,false,2,733.5,1,1,2,91572,WMM1,1684829,false,false,1975,image-keyboard-response,16
true,14,2,0,2,true,d,false,true,0.0-2.0-0.65-0.585-3.585,1,1,1,68,false,stim,false,2,2511.7000000476837,1,1,0,91572,WMM1,1688870,false,false,1978,image-keyboard-response,17
true,14,0,0,2,false,d,true,false,0.0-2.0-0.65-0.586-3.586,1,1,1,81,false,stim,false,2,2071.5,1,1,0,91572,WMM1,1692460,false,false,1981,image-keyboard-response,18
true,14,2,0,0,false,q,true,false,0.0-2.0-0.65-0.587-3.587,1,1,1,68,false,stim,false,0,2270.600000143051,1,1,1,91572,WMM1,1696256,false,false,1984,image-keyboard-response,19
true,14,1,0,0,false,q,true,true,0.0-2.0-0.65-0.588-3.588,1,1,1,90,false,stim,false,0,2186.7000000476837,1,1,1,91572,WMM1,1699968,false,true,1987,image-keyboard-response,20
false,14,-1,0,2,false,d,true,true,0.0-2.0-0.65-0.589-3.589,1,1,1,,false,stim,false,2,,1,1,2,91572,WMM1,1704497,false,true,1990,image-keyboard-response,21
true,14,2,0,2,true,d,false,false,0.0-2.0-0.65-0.590-3.590,1,1,1,68,false,stim,false,2,775.0999999046326,1,1,2,91572,WMM1,1706800,false,true,1993,image-keyboard-response,22
true,14,1,0,0,false,q,true,false,0.0-2.0-0.65-0.591-3.591,1,1,1,90,false,stim,false,0,855.2000000476837,1,1,1,91572,WMM1,1709192,false,false,1996,image-keyboard-response,23
true,14,2,0,2,true,d,false,true,0.0-2.0-0.65-0.592-3.592,1,1,1,68,false,stim,false,2,1954.7000000476837,1,1,2,91572,WMM1,1712674,false,false,1999,image-keyboard-response,24
true,14,1,0,2,false,d,true,false,0.0-2.0-0.65-0.593-3.593,1,1,1,90,false,stim,false,2,1539.7999999523163,1,1,0,91572,WMM1,1715752,false,false,2002,image-keyboard-response,25
