answered,blockNum,choice,condition,corResp,correct,correct_response,explo,fb,internal_node_id,isStable_1,isStable_2,isStable_3,key_press,newBlock,part,persev,persevResp,rt,sessNum,stableAS,stimulus,subject,task,time_elapsed,training,trap,trial_index,trial_type,trialsInBlock
true,1,1,0,2,false,d,true,true,0.0-2.0-0.0-0.0-3.0,0,0,0,90,true,stim,false,-1,697.1000001430511,2,0,2,91572,WMM2,142638,false,true,184,image-keyboard-response,1
true,1,1,0,2,false,d,true,false,0.0-2.0-0.0-0.1-3.1,0,0,0,90,false,stim,false,-1,419.40000009536743,2,0,2,91572,WMM2,144577,false,false,187,image-keyboard-response,2
true,1,2,0,1,false,z,true,false,0.0-2.0-0.0-0.2-3.2,0,0,0,68,false,stim,false,-1,610.8999998569489,2,0,0,91572,WMM2,146704,false,false,190,image-keyboard-response,3
true,1,0,0,0,true,q,false,true,0.0-2.0-0.0-0.3-3.3,0,0,0,81,false,stim,false,-1,787.7999999523163,2,0,1,91572,WMM2,149003,false,false,193,image-keyboard-response,4
true,1,1,0,2,false,d,true,false,0.0-2.0-0.0-0.4-3.4,0,0,0,90,false,stim,false,-1,466.2999999523163,2,0,2,91572,WMM2,150992,false,false,196,image-keyboard-response,5
true,1,0,0,0,true,q,false,true,0.0-2.0-0.0-0.5-3.5,0,0,0,81,false,stim,false,-1,548.2000000476837,2,0,1,91572,WMM2,153054,false,false,199,image-keyboard-response,6
true,1,2,0,1,false,z,true,false,0.0-2.0-0.0-0.6-3.6,0,0,0,68,false,stim,false,-1,501.5,2,0,0,91572,WMM2,155068,false,false,202,image-keyboard-response,7
true,1,0,0,0,true,q,false,true,0.0-2.0-0.0-0.7-3.7,0,0,0,81,false,stim,false,-1,559.3999998569489,2,0,1,91572,WMM2,157136,false,false,205,image-keyboard-response,8
true,1,0,0,1,false,z,true,false,0.0-2.0-0.0-0.8-3.8,0,0,0,81,false,stim,false,-1,363.30000019073486,2,0,0,91572,WMM2,159010,false,false,208,image-keyboard-response,9
true,1,0,0,1,false,z,true,false,0.0-2.0-0.1-0.9-3.9,0,0,0,81,false,stim,false,-1,414.7999999523163,2,0,0,91572,WMM2,160944,false,false,211,image-keyboard-response,10
true,1,1,0,1,true,z,false,true,0.0-2.0-0.1-0.10-3.10,0,0,0,90,false,stim,false,-1,418.10000014305115,2,0,0,91572,WMM2,162872,false,false,214,image-keyboard-response,11
true,1,0,0,0,true,q,false,true,0.0-2.0-0.1-0.11-3.11,0,0,0,81,false,stim,false,-1,725.4000000953674,2,0,1,91572,WMM2,165110,false,false,217,image-keyboard-response,12
true,1,2,0,2,true,d,false,true,0.0-2.0-0.1-0.12-3.12,0,0,0,68,false,stim,false,-1,1076.0,2,0,2,91572,WMM2,167698,false,false,220,image-keyboard-response,13
true,1,0,0,0,true,q,false,true,0.0-2.0-0.1-0.13-3.13,0,0,0,81,false,stim,false,-1,974.0,2,0,1,91572,WMM2,170186,false,false,223,image-keyboard-response,14
true,1,2,0,2,true,d,false,true,0.0-2.0-0.1-0.14-3.14,0,0,0,68,false,stim,false,-1,818.4000000953674,2,0,2,91572,WMM2,172513,false,false,226,image-keyboard-response,15
true,1,0,0,0,true,q,false,true,0.0-2.0-0.1-0.15-3.15,0,0,0,81,false,stim,false,-1,935.2000000476837,2,0,1,91572,WMM2,174962,false,false,229,image-keyboard-response,16
true,1,1,0,1,true,z,false,false,0.0-2.0-0.1-0.16-3.16,0,0,0,90,false,stim,false,-1,603.2999999523163,2,0,0,91572,WMM2,177080,false,true,232,image-keyboard-response,17
true,1,2,0,2,true,d,false,true,0.0-2.0-0.1-0.17-3.17,0,0,0,68,false,stim,false,-1,852.5,2,0,2,91572,WMM2,179443,false,false,235,image-keyboard-response,18
true,1,2,0,2,true,d,false,true,0.0-2.0-0.2-0.18-3.18,0,0,0,68,false,stim,false,-1,569.5,2,0,2,91572,WMM2,181522,false,false,238,image-keyboard-response,19
true,1,0,0,0,true,q,false,true,0.0-2.0-0.2-0.19-3.19,0,0,0,81,false,stim,false,-1,952.9000000953674,2,0,1,91572,WMM2,183984,false,false,241,image-keyboard-response,20
true,1,1,0,1,true,z,false,true,0.0-2.0-0.2-0.20-3.20,0,0,0,90,false,stim,false,-1,690.4000000953674,2,0,0,91572,WMM2,186192,false,false,244,image-keyboard-response,21
true,1,1,0,1,true,z,false,false,0.0-2.0-0.2-0.21-3.21,0,0,0,90,false,stim,false,-1,497.7999999523163,2,0,0,91572,WMM2,188211,false,true,247,image-keyboard-response,22
true,1,2,0,0,false,q,true,false,0.0-2.0-0.2-0.22-3.22,0,0,0,68,false,stim,false,-1,354.09999990463257,2,1,1,91572,WMM2,190089,false,false,250,image-keyboard-response,23
true,1,1,0,0,false,q,true,false,0.0-2.0-0.2-0.23-3.23,0,0,0,90,false,stim,false,-1,554.7999999523163,2,1,1,91572,WMM2,192162,false,false,253,image-keyboard-response,24
true,1,2,0,2,true,d,false,true,0.0-2.0-0.2-0.24-3.24,0,0,0,68,false,stim,false,-1,573.8999998569489,2,0,2,91572,WMM2,194250,false,false,256,image-keyboard-response,25
true,1,2,0,2,true,d,false,true,0.0-2.0-0.2-0.25-3.25,0,0,0,68,false,stim,false,-1,485.2999999523163,2,0,2,91572,WMM2,196244,false,false,259,image-keyboard-response,26
true,1,0,0,1,false,z,true,false,0.0-2.0-0.2-0.26-3.26,0,0,0,81,false,stim,false,-1,544.1999998092651,2,0,0,91572,WMM2,198302,false,false,262,image-keyboard-response,27
true,1,1,0,0,false,q,true,false,0.0-2.0-0.3-0.27-3.27,0,0,0,90,false,stim,false,-1,504.7000000476837,2,1,1,91572,WMM2,200314,false,false,265,image-keyboard-response,28
true,1,0,0,2,false,d,true,false,0.0-2.0-0.3-0.28-3.28,0,0,0,81,false,stim,false,-1,645.9000000953674,2,0,2,91572,WMM2,202482,false,false,268,image-keyboard-response,29
true,1,1,0,0,false,q,true,false,0.0-2.0-0.3-0.29-3.29,0,0,0,90,false,stim,false,-1,408.80000019073486,2,1,1,91572,WMM2,204411,false,false,271,image-keyboard-response,30
true,2,0,1,0,true,q,false,true,0.0-2.0-0.3-0.30-3.30,0,1,0,81,true,stim,false,1,697.9000000953674,2,0,0,91572,WMM2,206623,false,false,274,image-keyboard-response,1
true,2,2,1,1,false,z,false,false,0.0-2.0-0.3-0.31-3.31,0,1,0,68,false,stim,true,2,491.7000000476837,2,0,2,91572,WMM2,208633,false,false,277,image-keyboard-response,2
true,2,1,1,0,false,q,false,false,0.0-2.0-0.3-0.32-3.32,0,1,0,90,false,stim,true,1,476.7000000476837,2,0,0,91572,WMM2,210640,false,false,280,image-keyboard-response,3
true,2,2,1,1,false,z,false,false,0.0-2.0-0.3-0.33-3.33,0,1,0,68,false,stim,true,2,652.7999999523163,2,0,2,91572,WMM2,212808,false,false,283,image-keyboard-response,4
true,2,1,1,0,false,q,false,false,0.0-2.0-0.3-0.34-3.34,0,1,0,90,false,stim,true,1,800.2000000476837,2,0,0,91572,WMM2,215115,false,false,286,image-keyboard-response,5
true,2,0,1,0,true,q,false,true,0.0-2.0-0.3-0.35-3.35,0,1,0,81,false,stim,false,0,692.1999998092651,2,1,1,91572,WMM2,217324,false,false,289,image-keyboard-response,6
true,2,2,1,1,false,z,false,false,0.0-2.0-0.4-0.36-3.36,0,1,0,68,false,stim,true,2,865.2000000476837,2,0,2,91572,WMM2,219706,false,false,292,image-keyboard-response,7
true,2,1,1,1,true,z,false,true,0.0-2.0-0.4-0.37-3.37,0,1,0,90,false,stim,false,2,965.5999999046326,2,0,2,91572,WMM2,222189,false,false,295,image-keyboard-response,8
true,2,1,1,1,true,z,false,true,0.0-2.0-0.4-0.38-3.38,0,1,0,90,false,stim,false,2,547.0,2,0,2,91572,WMM2,224247,false,false,298,image-keyboard-response,9
true,2,0,1,0,true,q,false,true,0.0-2.0-0.4-0.39-3.39,0,1,0,81,false,stim,false,1,705.4000000953674,2,0,0,91572,WMM2,226465,false,false,301,image-keyboard-response,10
true,2,0,1,0,true,q,false,true,0.0-2.0-0.4-0.40-3.40,0,1,0,81,false,stim,false,1,470.09999990463257,2,0,0,91572,WMM2,228448,false,false,304,image-keyboard-response,11
true,2,0,1,0,true,q,false,true,0.0-2.0-0.4-0.41-3.41,0,1,0,81,false,stim,false,1,510.0,2,0,0,91572,WMM2,230476,false,false,307,image-keyboard-response,12
true,2,2,1,0,false,q,true,false,0.0-2.0-0.4-0.42-3.42,0,1,0,68,false,stim,false,0,1417.6999998092651,2,1,1,91572,WMM2,233409,false,false,310,image-keyboard-response,13
true,2,1,1,0,false,q,true,false,0.0-2.0-0.4-0.43-3.43,0,1,0,90,false,stim,false,0,939.4000000953674,2,1,1,91572,WMM2,235855,false,false,313,image-keyboard-response,14
true,2,0,1,0,true,q,false,true,0.0-2.0-0.4-0.44-3.44,0,1,0,81,false,stim,false,0,692.1000001430511,2,1,1,91572,WMM2,238074,false,false,316,image-keyboard-response,15
true,2,0,1,0,true,q,false,true,0.0-2.0-0.5-0.45-3.45,0,1,0,81,false,stim,false,0,496.90000009536743,2,1,1,91572,WMM2,240094,false,false,319,image-keyboard-response,16
true,2,0,1,0,true,q,false,true,0.0-2.0-0.5-0.46-3.46,0,1,0,81,false,stim,false,0,663.2999999523163,2,1,1,91572,WMM2,242276,false,false,322,image-keyboard-response,17
true,2,1,1,0,false,q,false,false,0.0-2.0-0.5-0.47-3.47,0,1,0,90,false,stim,true,1,865.5999999046326,2,0,0,91572,WMM2,244653,false,false,325,image-keyboard-response,18
true,2,0,1,1,false,z,true,false,0.0-2.0-0.5-0.48-3.48,0,1,0,81,false,stim,false,2,886.7999999523163,2,0,2,91572,WMM2,247052,false,false,328,image-keyboard-response,19
true,2,1,1,0,false,q,false,false,0.0-2.0-0.5-0.49-3.49,0,1,0,90,false,stim,true,1,795.9000000953674,2,0,0,91572,WMM2,249359,false,false,331,image-keyboard-response,20
true,2,2,1,1,false,z,false,true,0.0-2.0-0.5-0.50-3.50,0,1,0,68,false,stim,true,2,879.7999999523163,2,0,2,91572,WMM2,251747,false,true,334,image-keyboard-response,21
true,2,2,1,1,false,z,false,true,0.0-2.0-0.5-0.51-3.51,0,1,0,68,false,stim,true,2,441.09999990463257,2,0,2,91572,WMM2,253705,false,true,337,image-keyboard-response,22
true,2,0,1,0,true,q,false,true,0.0-2.0-0.5-0.52-3.52,0,1,0,81,false,stim,false,0,677.4000000953674,2,1,1,91572,WMM2,255902,false,false,340,image-keyboard-response,23
true,2,1,1,0,false,q,false,false,0.0-2.0-0.5-0.53-3.53,0,1,0,90,false,stim,true,1,614.9000000953674,2,0,0,91572,WMM2,258031,false,false,343,image-keyboard-response,24
true,2,2,1,0,false,q,true,false,0.0-2.0-0.6-0.54-3.54,0,1,0,68,false,stim,false,1,725.5999999046326,2,0,0,91572,WMM2,260273,false,false,346,image-keyboard-response,25
true,2,0,1,0,true,q,false,true,0.0-2.0-0.6-0.55-3.55,0,1,0,81,false,stim,false,0,755.7999999523163,2,1,1,91572,WMM2,262546,false,false,349,image-keyboard-response,26
true,2,2,1,1,false,z,false,false,0.0-2.0-0.6-0.56-3.56,0,1,0,68,false,stim,true,2,727.0999999046326,2,0,2,91572,WMM2,264785,false,false,352,image-keyboard-response,27
true,2,2,1,1,false,z,false,false,0.0-2.0-0.6-0.57-3.57,0,1,0,68,false,stim,true,2,704.5,2,0,2,91572,WMM2,266997,false,false,355,image-keyboard-response,28
true,2,1,1,1,true,z,false,false,0.0-2.0-0.6-0.58-3.58,0,1,0,90,false,stim,false,2,643.1999998092651,2,0,2,91572,WMM2,269155,false,true,358,image-keyboard-response,29
true,2,0,1,0,true,q,false,true,0.0-2.0-0.6-0.59-3.59,0,1,0,81,false,stim,false,0,650.1999998092651,2,1,1,91572,WMM2,271318,false,false,361,image-keyboard-response,30
true,2,1,1,0,false,q,false,false,0.0-2.0-0.6-0.60-3.60,0,1,0,90,false,stim,true,1,1080.5,2,0,0,91572,WMM2,273911,false,false,364,image-keyboard-response,31
true,2,2,1,0,false,q,true,false,0.0-2.0-0.6-0.61-3.61,0,1,0,68,false,stim,false,1,576.1999998092651,2,0,0,91572,WMM2,275999,false,false,367,image-keyboard-response,32
true,2,2,1,0,false,q,true,false,0.0-2.0-0.6-0.62-3.62,0,1,0,68,false,stim,false,0,1111.2000000476837,2,1,1,91572,WMM2,278636,false,false,370,image-keyboard-response,33
true,2,1,1,1,true,z,false,true,0.0-2.0-0.7-0.63-3.63,0,1,0,90,false,stim,false,2,780.2000000476837,2,0,2,91572,WMM2,280939,false,false,373,image-keyboard-response,34
true,2,0,1,0,true,q,false,true,0.0-2.0-0.7-0.64-3.64,0,1,0,81,false,stim,false,0,978.7000000476837,2,1,1,91572,WMM2,283427,false,false,376,image-keyboard-response,35
true,2,2,1,1,false,z,false,false,0.0-2.0-0.7-0.65-3.65,0,1,0,68,false,stim,true,2,927.2999999523163,2,0,2,91572,WMM2,285869,false,false,379,image-keyboard-response,36
true,2,1,1,0,false,q,true,false,0.0-2.0-0.7-0.66-3.66,0,1,0,90,false,stim,false,0,907.2999999523163,2,1,1,91572,WMM2,288288,false,false,382,image-keyboard-response,37
true,2,2,1,0,false,q,true,false,0.0-2.0-0.7-0.67-3.67,0,1,0,68,false,stim,false,1,1027.0999999046326,2,0,0,91572,WMM2,290831,false,false,385,image-keyboard-response,38
true,2,0,1,0,true,q,false,true,0.0-2.0-0.7-0.68-3.68,0,1,0,81,false,stim,false,1,724.7999999523163,2,0,0,91572,WMM2,293068,false,false,388,image-keyboard-response,39
true,2,0,1,0,true,q,false,false,0.0-2.0-0.7-0.69-3.69,0,1,0,81,false,stim,false,1,426.0,2,0,0,91572,WMM2,295011,false,true,391,image-keyboard-response,40
true,2,2,1,0,false,q,true,false,0.0-2.0-0.7-0.70-3.70,0,1,0,68,false,stim,false,0,787.5,2,1,1,91572,WMM2,297324,false,false,394,image-keyboard-response,41
true,2,1,1,1,true,z,false,true,0.0-2.0-0.7-0.71-3.71,0,1,0,90,false,stim,false,2,1295.0,2,0,2,91572,WMM2,300129,false,false,397,image-keyboard-response,42
true,2,0,1,0,true,q,false,true,0.0-2.0-0.8-0.72-3.72,0,1,0,81,false,stim,false,0,1147.8999998569489,2,1,1,91572,WMM2,302791,false,false,400,image-keyboard-response,43
true,2,2,1,0,false,q,true,false,0.0-2.0-0.8-0.73-3.73,0,1,0,68,false,stim,false,1,759.6000001430511,2,0,0,91572,WMM2,305075,false,false,403,image-keyboard-response,44
true,2,1,1,1,true,z,false,true,0.0-2.0-0.8-0.74-3.74,0,1,0,90,false,stim,false,2,1040.4000000953674,2,0,2,91572,WMM2,307627,false,false,406,image-keyboard-response,45
true,2,0,1,0,true,q,false,true,0.0-2.0-0.8-0.75-3.75,0,1,0,81,false,stim,false,1,1496.2999999523163,2,0,0,91572,WMM2,310635,false,false,409,image-keyboard-response,46
false,2,-1,1,0,false,q,true,false,0.0-2.0-0.8-0.76-3.76,0,1,0,,false,stim,false,0,,2,1,1,91572,WMM2,315161,false,false,412,image-keyboard-response,47
true,2,2,1,1,false,z,false,false,0.0-2.0-0.8-0.77-3.77,0,1,0,68,false,stim,true,2,713.5,2,0,2,91572,WMM2,317384,false,false,415,image-keyboard-response,48
true,2,1,1,1,true,z,false,false,0.0-2.0-0.8-0.78-3.78,0,1,0,90,false,stim,false,2,391.10000014305115,2,0,2,91572,WMM2,319293,false,true,418,image-keyboard-response,49
true,2,0,1,0,true,q,false,true,0.0-2.0-0.8-0.79-3.79,0,1,0,81,false,stim,false,1,732.0999999046326,2,0,0,91572,WMM2,321545,false,false,421,image-keyboard-response,50
true,2,2,1,0,false,q,true,false,0.0-2.0-0.8-0.80-3.80,0,1,0,68,false,stim,false,0,792.3000001907349,2,0,1,91572,WMM2,323859,false,false,424,image-keyboard-response,51
true,2,2,1,0,false,q,true,false,0.0-2.0-0.9-0.81-3.81,0,1,0,68,false,stim,false,1,593.5,2,1,0,91572,WMM2,325966,false,false,427,image-keyboard-response,52
true,2,1,1,1,true,z,false,true,0.0-2.0-0.9-0.82-3.82,0,1,0,90,false,stim,false,2,880.6999998092651,2,1,2,91572,WMM2,328359,false,false,430,image-keyboard-response,53
true,2,1,1,0,false,q,true,false,0.0-2.0-0.9-0.83-3.83,0,1,0,90,false,stim,false,0,957.4000000953674,2,0,1,91572,WMM2,330832,false,false,433,image-keyboard-response,54
true,2,2,1,0,false,q,true,false,0.0-2.0-0.9-0.84-3.84,0,1,0,68,false,stim,false,1,507.7999999523163,2,1,0,91572,WMM2,332856,false,false,436,image-keyboard-response,55
true,2,0,1,1,false,z,true,false,0.0-2.0-0.9-0.85-3.85,0,1,0,81,false,stim,false,2,627.4000000953674,2,1,2,91572,WMM2,334998,false,false,439,image-keyboard-response,56
true,2,2,1,0,false,q,true,false,0.0-2.0-0.9-0.86-3.86,0,1,0,68,false,stim,false,1,1187.2000000476837,2,1,0,91572,WMM2,337696,false,false,442,image-keyboard-response,57
true,2,1,1,0,false,q,true,false,0.0-2.0-0.9-0.87-3.87,0,1,0,90,false,stim,false,0,653.5999999046326,2,0,1,91572,WMM2,339859,false,false,445,image-keyboard-response,58
true,2,0,1,1,false,z,true,true,0.0-2.0-0.9-0.88-3.88,0,1,0,81,false,stim,false,2,1182.5,2,1,2,91572,WMM2,342558,false,true,448,image-keyboard-response,59
true,2,0,1,0,true,q,false,true,0.0-2.0-0.9-0.89-3.89,0,1,0,81,false,stim,false,0,784.2000000476837,2,0,1,91572,WMM2,344856,false,false,451,image-keyboard-response,60
true,3,2,3,2,true,d,false,true,0.0-2.0-0.10-0.90-3.90,1,0,1,68,true,stim,false,0,936.6000001430511,2,0,1,91572,WMM2,347313,false,false,454,image-keyboard-response,1
true,3,1,3,1,true,z,false,true,0.0-2.0-0.10-0.91-3.91,1,0,1,90,false,stim,false,1,800.5999999046326,2,1,2,91572,WMM2,349631,false,false,457,image-keyboard-response,2
true,3,1,3,1,true,z,false,true,0.0-2.0-0.10-0.92-3.92,1,0,1,90,false,stim,false,1,633.0,2,1,2,91572,WMM2,351779,false,false,460,image-keyboard-response,3
true,3,0,3,0,true,q,false,true,0.0-2.0-0.10-0.93-3.93,1,0,1,81,false,stim,false,0,755.0999999046326,2,1,0,91572,WMM2,354051,false,false,463,image-keyboard-response,4
true,3,0,3,0,true,q,false,false,0.0-2.0-0.10-0.94-3.94,1,0,1,81,false,stim,false,0,602.7999999523163,2,1,0,91572,WMM2,356171,false,true,466,image-keyboard-response,5
true,3,2,3,2,true,d,false,true,0.0-2.0-0.10-0.95-3.95,1,0,1,68,false,stim,false,0,1576.2999999523163,2,0,1,91572,WMM2,359267,false,false,469,image-keyboard-response,6
true,3,1,3,1,true,z,false,true,0.0-2.0-0.10-0.96-3.96,1,0,1,90,false,stim,false,1,621.0,2,1,2,91572,WMM2,361406,false,false,472,image-keyboard-response,7
true,3,0,3,0,true,q,false,false,0.0-2.0-0.10-0.97-3.97,1,0,1,81,false,stim,false,0,664.5,2,1,0,91572,WMM2,363585,false,true,475,image-keyboard-response,8
true,3,2,3,2,true,d,false,true,0.0-2.0-0.10-0.98-3.98,1,0,1,68,false,stim,false,0,1262.0999999046326,2,0,1,91572,WMM2,366358,false,false,478,image-keyboard-response,9
true,3,2,3,2,true,d,false,true,0.0-2.0-0.11-0.99-3.99,1,0,1,68,false,stim,false,0,655.0,2,0,1,91572,WMM2,368530,false,false,481,image-keyboard-response,10
true,3,2,3,2,true,d,false,true,0.0-2.0-0.11-0.100-3.100,1,0,1,68,false,stim,false,0,1134.4000000953674,2,0,1,91572,WMM2,371179,false,false,484,image-keyboard-response,11
true,3,1,3,1,true,z,false,false,0.0-2.0-0.11-0.101-3.101,1,0,1,90,false,stim,false,1,695.0,2,1,2,91572,WMM2,373392,false,true,487,image-keyboard-response,12
true,3,0,3,0,true,q,false,true,0.0-2.0-0.11-0.102-3.102,1,0,1,81,false,stim,false,0,466.7000000476837,2,1,0,91572,WMM2,375375,false,false,490,image-keyboard-response,13
true,3,2,3,1,false,z,true,false,0.0-2.0-0.11-0.103-3.103,1,0,1,68,false,stim,false,1,624.2999999523163,2,1,2,91572,WMM2,377510,false,false,493,image-keyboard-response,14
true,3,1,3,0,false,q,true,true,0.0-2.0-0.11-0.104-3.104,1,0,1,90,false,stim,false,0,324.2000000476837,2,1,0,91572,WMM2,379347,false,true,496,image-keyboard-response,15
true,3,2,3,1,false,z,true,true,0.0-2.0-0.11-0.105-3.105,1,0,1,68,false,stim,false,1,573.9000000953674,2,1,2,91572,WMM2,381445,false,true,499,image-keyboard-response,16
true,3,1,3,0,false,q,true,false,0.0-2.0-0.11-0.106-3.106,1,0,1,90,false,stim,false,0,349.30000019073486,2,1,0,91572,WMM2,383308,false,false,502,image-keyboard-response,17
true,3,0,3,2,false,d,false,false,0.0-2.0-0.11-0.107-3.107,1,0,1,81,false,stim,true,0,799.1999998092651,2,0,1,91572,WMM2,385621,false,false,505,image-keyboard-response,18
true,3,1,3,1,true,z,false,true,0.0-2.0-0.12-0.108-3.108,1,0,1,90,false,stim,false,1,564.5999999046326,2,1,2,91572,WMM2,387700,false,false,508,image-keyboard-response,19
true,3,2,3,0,false,q,true,true,0.0-2.0-0.12-0.109-3.109,1,0,1,68,false,stim,false,0,633.2999999523163,2,1,0,91572,WMM2,389843,false,true,511,image-keyboard-response,20
true,3,2,3,2,true,d,false,true,0.0-2.0-0.12-0.110-3.110,1,0,1,68,false,stim,false,0,993.1999998092651,2,0,1,91572,WMM2,392350,false,false,514,image-keyboard-response,21
true,3,1,3,1,true,z,false,true,0.0-2.0-0.12-0.111-3.111,1,0,1,90,false,stim,false,1,425.5,2,1,2,91572,WMM2,394293,false,false,517,image-keyboard-response,22
true,3,1,3,1,true,z,false,true,0.0-2.0-0.12-0.112-3.112,1,0,1,90,false,stim,false,1,435.5,2,1,2,91572,WMM2,396247,false,false,520,image-keyboard-response,23
true,3,2,3,2,true,d,false,true,0.0-2.0-0.12-0.113-3.113,1,0,1,68,false,stim,false,0,707.8999998569489,2,0,1,91572,WMM2,398470,false,false,523,image-keyboard-response,24
true,3,2,3,2,true,d,false,true,0.0-2.0-0.12-0.114-3.114,1,0,1,68,false,stim,false,0,476.90000009536743,2,0,1,91572,WMM2,400464,false,false,526,image-keyboard-response,25
true,3,1,3,0,false,q,true,false,0.0-2.0-0.12-0.115-3.115,1,0,1,90,false,stim,false,0,558.7000000476837,2,1,0,91572,WMM2,402533,false,false,529,image-keyboard-response,26
true,3,2,3,0,false,q,true,false,0.0-2.0-0.12-0.116-3.116,1,0,1,68,false,stim,false,0,643.9000000953674,2,1,0,91572,WMM2,404689,false,false,532,image-keyboard-response,27
true,3,2,3,1,false,z,true,false,0.0-2.0-0.13-0.117-3.117,1,0,1,68,false,stim,false,1,1130.4000000953674,2,1,2,91572,WMM2,407341,false,false,535,image-keyboard-response,28
true,3,1,3,1,true,z,false,true,0.0-2.0-0.13-0.118-3.118,1,0,1,90,false,stim,false,1,622.0999999046326,2,1,2,91572,WMM2,409480,false,false,538,image-keyboard-response,29
true,3,0,3,0,true,q,false,true,0.0-2.0-0.13-0.119-3.119,1,0,1,81,false,stim,false,0,708.4000000953674,2,1,0,91572,WMM2,411697,false,false,541,image-keyboard-response,30
true,3,0,3,0,true,q,false,true,0.0-2.0-0.13-0.120-3.120,1,0,1,81,false,stim,false,0,490.2999999523163,2,1,0,91572,WMM2,413706,false,false,544,image-keyboard-response,31
true,3,1,3,2,false,d,true,false,0.0-2.0-0.13-0.121-3.121,1,0,1,90,false,stim,false,0,799.4000000953674,2,0,1,91572,WMM2,416029,false,false,547,image-keyboard-response,32
true,3,2,3,2,true,d,false,true,0.0-2.0-0.13-0.122-3.122,1,0,1,68,false,stim,false,0,845.2999999523163,2,0,1,91572,WMM2,418391,false,false,550,image-keyboard-response,33
true,3,1,3,1,true,z,false,true,0.0-2.0-0.13-0.123-3.123,1,0,1,90,false,stim,false,1,782.7000000476837,2,1,2,91572,WMM2,420694,false,false,553,image-keyboard-response,34
true,3,0,3,0,true,q,false,true,0.0-2.0-0.13-0.124-3.124,1,0,1,81,false,stim,false,0,903.0,2,1,0,91572,WMM2,423111,false,false,556,image-keyboard-response,35
true,3,2,3,2,true,d,false,true,0.0-2.0-0.13-0.125-3.125,1,0,1,68,false,stim,false,0,766.0999999046326,2,0,1,91572,WMM2,425389,false,false,559,image-keyboard-response,36
true,3,1,3,1,true,z,false,true,0.0-2.0-0.14-0.126-3.126,1,0,1,90,false,stim,false,1,1334.5999999046326,2,0,2,91572,WMM2,428248,false,false,562,image-keyboard-response,37
true,3,0,3,0,true,q,false,false,0.0-2.0-0.14-0.127-3.127,1,0,1,81,false,stim,false,0,745.1000001430511,2,1,0,91572,WMM2,430505,false,true,565,image-keyboard-response,38
true,3,1,3,1,true,z,false,true,0.0-2.0-0.14-0.128-3.128,1,0,1,90,false,stim,false,1,1051.0,2,0,2,91572,WMM2,433074,false,false,568,image-keyboard-response,39
true,3,0,3,0,true,q,false,false,0.0-2.0-0.14-0.129-3.129,1,0,1,81,false,stim,false,0,749.9000000953674,2,1,0,91572,WMM2,435332,false,true,571,image-keyboard-response,40
true,3,2,3,2,true,d,false,true,0.0-2.0-0.14-0.130-3.130,1,0,1,68,false,stim,false,0,670.4000000953674,2,1,1,91572,WMM2,437515,false,false,574,image-keyboard-response,41
true,3,1,3,1,true,z,false,true,0.0-2.0-0.14-0.131-3.131,1,0,1,90,false,stim,false,1,1044.8999998569489,2,0,2,91572,WMM2,440073,false,false,577,image-keyboard-response,42
true,3,2,3,2,true,d,false,true,0.0-2.0-0.14-0.132-3.132,1,0,1,68,false,stim,false,0,1248.2000000476837,2,1,1,91572,WMM2,442831,false,false,580,image-keyboard-response,43
true,3,1,3,0,false,q,true,false,0.0-2.0-0.14-0.133-3.133,1,0,1,90,false,stim,false,0,740.1000001430511,2,1,0,91572,WMM2,445085,false,false,583,image-keyboard-response,44
true,3,2,3,2,true,d,false,true,0.0-2.0-0.14-0.134-3.134,1,0,1,68,false,stim,false,0,712.6000001430511,2,1,1,91572,WMM2,447317,false,false,586,image-keyboard-response,45
true,3,0,3,0,true,q,false,true,0.0-2.0-0.15-0.135-3.135,1,0,1,81,false,stim,false,0,863.5,2,1,0,91572,WMM2,449702,false,false,589,image-keyboard-response,46
true,4,2,4,2,true,d,false,true,0.0-2.0-0.15-0.136-3.136,1,1,0,68,true,stim,false,2,766.5999999046326,2,1,1,91572,WMM2,451984,false,false,592,image-keyboard-response,1
true,4,1,4,1,true,z,false,true,0.0-2.0-0.15-0.137-3.137,1,1,0,90,false,stim,false,1,512.2000000476837,2,0,2,91572,WMM2,454013,false,false,595,image-keyboard-response,2
true,4,1,4,2,false,d,true,false,0.0-2.0-0.15-0.138-3.138,1,1,0,90,false,stim,false,2,553.5,2,1,1,91572,WMM2,456092,false,false,598,image-keyboard-response,3
true,4,0,4,0,true,q,false,true,0.0-2.0-0.15-0.139-3.139,1,1,0,81,false,stim,false,0,883.3999998569489,2,1,0,91572,WMM2,458490,false,false,601,image-keyboard-response,4
true,4,0,4,0,true,q,false,false,0.0-2.0-0.15-0.140-3.140,1,1,0,81,false,stim,false,0,615.8000001907349,2,1,0,91572,WMM2,460618,false,true,604,image-keyboard-response,5
true,4,1,4,1,true,z,false,true,0.0-2.0-0.15-0.141-3.141,1,1,0,90,false,stim,false,1,745.2000000476837,2,0,2,91572,WMM2,462876,false,false,607,image-keyboard-response,6
true,4,1,4,1,true,z,false,true,0.0-2.0-0.15-0.142-3.142,1,1,0,90,false,stim,false,1,606.2000000476837,2,0,2,91572,WMM2,464999,false,false,610,image-keyboard-response,7
true,4,2,4,2,true,d,false,true,0.0-2.0-0.15-0.143-3.143,1,1,0,68,false,stim,false,2,678.9000000953674,2,1,1,91572,WMM2,467193,false,false,613,image-keyboard-response,8
true,4,1,4,1,true,z,false,true,0.0-2.0-0.16-0.144-3.144,1,1,0,90,false,stim,false,1,755.5,2,0,2,91572,WMM2,469460,false,false,616,image-keyboard-response,9
true,4,0,4,0,true,q,false,true,0.0-2.0-0.16-0.145-3.145,1,1,0,81,false,stim,false,0,1183.5,2,1,0,91572,WMM2,472158,false,false,619,image-keyboard-response,10
true,4,1,4,1,true,z,false,true,0.0-2.0-0.16-0.146-3.146,1,1,0,90,false,stim,false,1,971.4000000953674,2,0,2,91572,WMM2,474637,false,false,622,image-keyboard-response,11
true,4,0,4,0,true,q,false,true,0.0-2.0-0.16-0.147-3.147,1,1,0,81,false,stim,false,0,628.4000000953674,2,1,0,91572,WMM2,476785,false,false,625,image-keyboard-response,12
true,4,2,4,2,true,d,false,true,0.0-2.0-0.16-0.148-3.148,1,1,0,68,false,stim,false,2,999.4000000953674,2,1,1,91572,WMM2,479304,false,false,628,image-keyboard-response,13
true,4,0,4,0,true,q,false,false,0.0-2.0-0.16-0.149-3.149,1,1,0,81,false,stim,false,0,1266.1000001430511,2,1,0,91572,WMM2,482082,false,true,631,image-keyboard-response,14
true,4,1,4,1,true,z,false,true,0.0-2.0-0.16-0.150-3.150,1,1,0,90,false,stim,false,1,741.1999998092651,2,0,2,91572,WMM2,484344,false,false,634,image-keyboard-response,15
true,4,2,4,2,true,d,false,true,0.0-2.0-0.16-0.151-3.151,1,1,0,68,false,stim,false,2,648.7999999523163,2,1,1,91572,WMM2,486513,false,false,637,image-keyboard-response,16
true,4,2,4,2,true,d,false,true,0.0-2.0-0.16-0.152-3.152,1,1,0,68,false,stim,false,2,760.0999999046326,2,1,1,91572,WMM2,488788,false,false,640,image-keyboard-response,17
true,4,2,4,2,true,d,false,true,0.0-2.0-0.17-0.153-3.153,1,1,0,68,false,stim,false,2,1065.0999999046326,2,1,1,91572,WMM2,491364,false,false,643,image-keyboard-response,18
true,4,1,4,1,true,z,false,true,0.0-2.0-0.17-0.154-3.154,1,1,0,90,false,stim,false,1,696.8999998569489,2,0,2,91572,WMM2,493577,false,false,646,image-keyboard-response,19
true,4,1,4,1,true,z,false,true,0.0-2.0-0.17-0.155-3.155,1,1,0,90,false,stim,false,1,1182.0999999046326,2,0,2,91572,WMM2,496270,false,false,649,image-keyboard-response,20
true,4,0,4,0,true,q,false,true,0.0-2.0-0.17-0.156-3.156,1,1,0,81,false,stim,false,0,904.5,2,1,0,91572,WMM2,498689,false,false,652,image-keyboard-response,21
true,4,0,4,0,true,q,false,true,0.0-2.0-0.17-0.157-3.157,1,1,0,81,false,stim,false,0,1340.2999999523163,2,1,0,91572,WMM2,501547,false,false,655,image-keyboard-response,22
true,4,0,4,0,true,q,false,true,0.0-2.0-0.17-0.158-3.158,1,1,0,81,false,stim,false,0,660.7000000476837,2,1,0,91572,WMM2,503715,false,false,658,image-keyboard-response,23
true,4,2,4,2,true,d,false,false,0.0-2.0-0.17-0.159-3.159,1,1,0,68,false,stim,false,2,603.7000000476837,2,0,1,91572,WMM2,505833,false,true,661,image-keyboard-response,24
true,4,1,4,2,false,d,true,false,0.0-2.0-0.17-0.160-3.160,1,1,0,90,false,stim,false,2,784.8999998569489,2,0,1,91572,WMM2,508138,false,false,664,image-keyboard-response,25
true,4,1,4,1,true,z,false,true,0.0-2.0-0.17-0.161-3.161,1,1,0,90,false,stim,false,1,1578.8000001907349,2,1,2,91572,WMM2,511236,false,false,667,image-keyboard-response,26
true,4,1,4,1,true,z,false,true,0.0-2.0-0.18-0.162-3.162,1,1,0,90,false,stim,false,1,556.5,2,1,2,91572,WMM2,513313,false,false,670,image-keyboard-response,27
true,4,2,4,2,true,d,false,true,0.0-2.0-0.18-0.163-3.163,1,1,0,68,false,stim,false,2,1159.7999999523163,2,0,1,91572,WMM2,515991,false,false,673,image-keyboard-response,28
true,4,0,4,0,true,q,false,true,0.0-2.0-0.18-0.164-3.164,1,1,0,81,false,stim,false,0,1454.2000000476837,2,1,0,91572,WMM2,518964,false,false,676,image-keyboard-response,29
true,4,2,4,2,true,d,false,true,0.0-2.0-0.18-0.165-3.165,1,1,0,68,false,stim,false,2,1180.7000000476837,2,0,1,91572,WMM2,521652,false,false,679,image-keyboard-response,30
true,5,2,2,1,false,z,false,false,0.0-2.0-0.18-0.166-3.166,1,0,1,68,true,stim,true,2,1269.9000000953674,2,0,1,91572,WMM2,524435,false,false,682,image-keyboard-response,1
true,5,1,2,0,false,q,true,true,0.0-2.0-0.18-0.167-3.167,1,0,1,90,false,stim,false,0,1300.3999998569489,2,1,0,91572,WMM2,527252,false,true,685,image-keyboard-response,2
true,5,1,2,0,false,q,true,false,0.0-2.0-0.18-0.168-3.168,1,0,1,90,false,stim,false,0,582.0,2,1,0,91572,WMM2,529341,false,false,688,image-keyboard-response,3
true,5,1,2,1,true,z,false,true,0.0-2.0-0.18-0.169-3.169,1,0,1,90,false,stim,false,1,1544.4000000953674,2,1,2,91572,WMM2,532394,false,false,691,image-keyboard-response,4
true,5,1,2,1,true,z,false,true,0.0-2.0-0.18-0.170-3.170,1,0,1,90,false,stim,false,1,587.3999998569489,2,1,2,91572,WMM2,534498,false,false,694,image-keyboard-response,5
true,5,2,2,1,false,z,false,true,0.0-2.0-0.19-0.171-3.171,1,0,1,68,false,stim,true,2,798.0999999046326,2,0,1,91572,WMM2,536816,false,true,697,image-keyboard-response,6
true,5,1,2,1,true,z,false,true,0.0-2.0-0.19-0.172-3.172,1,0,1,90,false,stim,false,1,566.1000001430511,2,1,2,91572,WMM2,538900,false,false,700,image-keyboard-response,7
true,5,2,2,1,false,z,false,false,0.0-2.0-0.19-0.173-3.173,1,0,1,68,false,stim,true,2,695.4000000953674,2,0,1,91572,WMM2,541111,false,false,703,image-keyboard-response,8
true,5,2,2,1,false,z,false,false,0.0-2.0-0.19-0.174-3.174,1,0,1,68,false,stim,true,2,899.9000000953674,2,0,1,91572,WMM2,543529,false,false,706,image-keyboard-response,9
true,5,1,2,1,true,z,false,true,0.0-2.0-0.19-0.175-3.175,1,0,1,90,false,stim,false,1,785.8999998569489,2,1,2,91572,WMM2,545828,false,false,709,image-keyboard-response,10
true,5,0,2,0,true,q,false,false,0.0-2.0-0.19-0.176-3.176,1,0,1,81,false,stim,false,0,1385.5,2,1,0,91572,WMM2,548729,false,true,712,image-keyboard-response,11
true,5,2,2,0,false,q,true,false,0.0-2.0-0.19-0.177-3.177,1,0,1,68,false,stim,false,0,866.0,2,1,0,91572,WMM2,551112,false,false,715,image-keyboard-response,12
true,5,2,2,1,false,z,true,false,0.0-2.0-0.19-0.178-3.178,1,0,1,68,false,stim,false,1,783.2000000476837,2,1,2,91572,WMM2,553405,false,false,718,image-keyboard-response,13
true,5,2,2,0,false,q,true,false,0.0-2.0-0.19-0.179-3.179,1,0,1,68,false,stim,false,0,925.8999998569489,2,1,0,91572,WMM2,555844,false,false,721,image-keyboard-response,14
true,5,2,2,1,false,z,true,false,0.0-2.0-0.20-0.180-3.180,1,0,1,68,false,stim,false,1,1035.9000000953674,2,1,2,91572,WMM2,558397,false,false,724,image-keyboard-response,15
true,5,2,2,0,false,q,true,false,0.0-2.0-0.20-0.181-3.181,1,0,1,68,false,stim,false,0,836.4000000953674,2,1,0,91572,WMM2,560751,false,false,727,image-keyboard-response,16
true,5,1,2,1,true,z,false,true,0.0-2.0-0.20-0.182-3.182,1,0,1,90,false,stim,false,2,577.1999998092651,2,0,1,91572,WMM2,562841,false,false,730,image-keyboard-response,17
true,5,1,2,1,true,z,false,true,0.0-2.0-0.20-0.183-3.183,1,0,1,90,false,stim,false,1,868.3999998569489,2,1,2,91572,WMM2,565219,false,false,733,image-keyboard-response,18
true,5,1,2,1,true,z,false,true,0.0-2.0-0.20-0.184-3.184,1,0,1,90,false,stim,false,2,704.7999999523163,2,0,1,91572,WMM2,567432,false,false,736,image-keyboard-response,19
true,5,2,2,0,false,q,true,true,0.0-2.0-0.20-0.185-3.185,1,0,1,68,false,stim,false,0,959.2000000476837,2,1,0,91572,WMM2,569910,false,true,739,image-keyboard-response,20
true,5,1,2,1,true,z,false,true,0.0-2.0-0.20-0.186-3.186,1,0,1,90,false,stim,false,1,505.7000000476837,2,1,2,91572,WMM2,571933,false,false,742,image-keyboard-response,21
true,5,2,2,0,false,q,true,true,0.0-2.0-0.20-0.187-3.187,1,0,1,68,false,stim,false,0,728.7000000476837,2,1,0,91572,WMM2,574175,false,true,745,image-keyboard-response,22
true,5,1,2,1,true,z,false,true,0.0-2.0-0.20-0.188-3.188,1,0,1,90,false,stim,false,2,514.1000001430511,2,0,1,91572,WMM2,576204,false,false,748,image-keyboard-response,23
true,5,2,2,1,false,z,true,false,0.0-2.0-0.21-0.189-3.189,1,0,1,68,false,stim,false,1,1508.4000000953674,2,1,2,91572,WMM2,579227,false,false,751,image-keyboard-response,24
true,5,1,2,1,true,z,false,false,0.0-2.0-0.21-0.190-3.190,1,0,1,90,false,stim,false,1,1067.6000001430511,2,1,2,91572,WMM2,581811,false,true,754,image-keyboard-response,25
true,5,2,2,1,false,z,false,false,0.0-2.0-0.21-0.191-3.191,1,0,1,68,false,stim,true,2,1555.5,2,0,1,91572,WMM2,584881,false,false,757,image-keyboard-response,26
true,5,1,2,0,false,q,true,false,0.0-2.0-0.21-0.192-3.192,1,0,1,90,false,stim,false,0,568.7999999523163,2,1,0,91572,WMM2,586960,false,false,760,image-keyboard-response,27
true,5,1,2,1,true,z,false,true,0.0-2.0-0.21-0.193-3.193,1,0,1,90,false,stim,false,2,1087.2999999523163,2,0,1,91572,WMM2,589563,false,false,763,image-keyboard-response,28
true,5,1,2,1,true,z,false,true,0.0-2.0-0.21-0.194-3.194,1,0,1,90,false,stim,false,1,541.7000000476837,2,1,2,91572,WMM2,591620,false,false,766,image-keyboard-response,29
true,5,2,2,0,false,q,true,false,0.0-2.0-0.21-0.195-3.195,1,0,1,68,false,stim,false,0,481.10000014305115,2,1,0,91572,WMM2,593609,false,false,769,image-keyboard-response,30
true,5,0,2,0,true,q,false,true,0.0-2.0-0.21-0.196-3.196,1,0,1,81,false,stim,false,0,561.8999998569489,2,1,0,91572,WMM2,595692,false,false,772,image-keyboard-response,31
true,5,1,2,1,true,z,false,true,0.0-2.0-0.21-0.197-3.197,1,0,1,90,false,stim,false,2,556.6000001430511,2,0,1,91572,WMM2,597770,false,false,775,image-keyboard-response,32
true,5,1,2,1,true,z,false,true,0.0-2.0-0.22-0.198-3.198,1,0,1,90,false,stim,false,1,1798.5999999046326,2,1,2,91572,WMM2,601082,false,false,778,image-keyboard-response,33
true,5,1,2,1,true,z,false,true,0.0-2.0-0.22-0.199-3.199,1,0,1,90,false,stim,false,1,545.1000001430511,2,1,2,91572,WMM2,603151,false,false,781,image-keyboard-response,34
true,5,1,2,1,true,z,false,true,0.0-2.0-0.22-0.200-3.200,1,0,1,90,false,stim,false,2,1167.8999998569489,2,0,1,91572,WMM2,605834,false,false,784,image-keyboard-response,35
true,5,0,2,0,true,q,false,true,0.0-2.0-0.22-0.201-3.201,1,0,1,81,false,stim,false,0,620.0999999046326,2,1,0,91572,WMM2,607972,false,false,787,image-keyboard-response,36
true,5,0,2,0,true,q,false,false,0.0-2.0-0.22-0.202-3.202,1,0,1,81,false,stim,false,0,697.5999999046326,2,1,0,91572,WMM2,610185,false,true,790,image-keyboard-response,37
true,5,0,2,0,true,q,false,false,0.0-2.0-0.22-0.203-3.203,1,0,1,81,false,stim,false,0,478.60000014305115,2,1,0,91572,WMM2,612183,false,true,793,image-keyboard-response,38
true,5,1,2,1,true,z,false,true,0.0-2.0-0.22-0.204-3.204,1,0,1,90,false,stim,false,2,656.0,2,1,1,91572,WMM2,614356,false,false,796,image-keyboard-response,39
true,5,1,2,1,true,z,false,true,0.0-2.0-0.22-0.205-3.205,1,0,1,90,false,stim,false,1,760.8999998569489,2,0,2,91572,WMM2,616626,false,false,799,image-keyboard-response,40
true,5,1,2,1,true,z,false,false,0.0-2.0-0.22-0.206-3.206,1,0,1,90,false,stim,false,2,693.0,2,1,1,91572,WMM2,618842,false,true,802,image-keyboard-response,41
true,5,1,2,1,true,z,false,true,0.0-2.0-0.23-0.207-3.207,1,0,1,90,false,stim,false,2,729.2999999523163,2,1,1,91572,WMM2,621081,false,false,805,image-keyboard-response,42
true,5,1,2,1,true,z,false,true,0.0-2.0-0.23-0.208-3.208,1,0,1,90,false,stim,false,2,753.7999999523163,2,1,1,91572,WMM2,623354,false,false,808,image-keyboard-response,43
true,5,1,2,1,true,z,false,true,0.0-2.0-0.23-0.209-3.209,1,0,1,90,false,stim,false,1,1604.2000000476837,2,0,2,91572,WMM2,626476,false,false,811,image-keyboard-response,44
true,5,0,2,0,true,q,false,false,0.0-2.0-0.23-0.210-3.210,1,0,1,81,false,stim,false,0,496.90000009536743,2,1,0,91572,WMM2,628484,false,true,814,image-keyboard-response,45
true,5,0,2,0,true,q,false,false,0.0-2.0-0.23-0.211-3.211,1,0,1,81,false,stim,false,0,543.7999999523163,2,1,0,91572,WMM2,630546,false,true,817,image-keyboard-response,46
true,6,1,4,0,false,q,true,false,0.0-2.0-0.23-0.212-3.212,1,1,0,90,true,stim,false,0,953.5,2,1,0,91572,WMM2,633008,false,false,820,image-keyboard-response,1
true,6,2,4,1,false,z,true,false,0.0-2.0-0.23-0.213-3.213,1,1,0,68,false,stim,false,1,804.4000000953674,2,0,2,91572,WMM2,635328,false,false,823,image-keyboard-response,2
true,6,2,4,1,false,z,true,false,0.0-2.0-0.23-0.214-3.214,1,1,0,68,false,stim,false,1,938.7999999523163,2,0,2,91572,WMM2,637781,false,false,826,image-keyboard-response,3
true,6,1,4,1,true,z,false,true,0.0-2.0-0.23-0.215-3.215,1,1,0,90,false,stim,false,1,793.7000000476837,2,1,1,91572,WMM2,640084,false,false,829,image-keyboard-response,4
true,6,0,4,1,false,z,true,false,0.0-2.0-0.24-0.216-3.216,1,1,0,81,false,stim,false,1,784.9000000953674,2,0,2,91572,WMM2,642387,false,false,832,image-keyboard-response,5
true,6,2,4,1,false,z,true,false,0.0-2.0-0.24-0.217-3.217,1,1,0,68,false,stim,false,1,708.7000000476837,2,1,1,91572,WMM2,644610,false,false,835,image-keyboard-response,6
true,6,2,4,1,false,z,true,false,0.0-2.0-0.24-0.218-3.218,1,1,0,68,false,stim,false,1,1012.5,2,1,1,91572,WMM2,647143,false,false,838,image-keyboard-response,7
true,6,1,4,1,true,z,false,true,0.0-2.0-0.24-0.219-3.219,1,1,0,90,false,stim,false,1,856.4000000953674,2,1,1,91572,WMM2,649511,false,false,841,image-keyboard-response,8
true,6,1,4,0,false,q,true,true,0.0-2.0-0.24-0.220-3.220,1,1,0,90,false,stim,false,0,977.2999999523163,2,1,0,91572,WMM2,651999,false,true,844,image-keyboard-response,9
true,6,1,4,0,false,q,true,true,0.0-2.0-0.24-0.221-3.221,1,1,0,90,false,stim,false,0,459.0,2,1,0,91572,WMM2,653967,false,true,847,image-keyboard-response,10
true,6,2,4,1,false,z,true,false,0.0-2.0-0.24-0.222-3.222,1,1,0,68,false,stim,false,1,709.5999999046326,2,0,2,91572,WMM2,656186,false,false,850,image-keyboard-response,11
true,6,1,4,0,false,q,true,true,0.0-2.0-0.24-0.223-3.223,1,1,0,90,false,stim,false,0,1212.9000000953674,2,1,0,91572,WMM2,658923,false,true,853,image-keyboard-response,12
true,6,1,4,1,true,z,false,true,0.0-2.0-0.24-0.224-3.224,1,1,0,90,false,stim,false,1,590.7000000476837,2,0,2,91572,WMM2,661036,false,false,856,image-keyboard-response,13
true,6,1,4,1,true,z,false,true,0.0-2.0-0.25-0.225-3.225,1,1,0,90,false,stim,false,1,466.0,2,0,2,91572,WMM2,663014,false,false,859,image-keyboard-response,14
true,6,1,4,0,false,q,true,false,0.0-2.0-0.25-0.226-3.226,1,1,0,90,false,stim,false,0,365.10000014305115,2,1,0,91572,WMM2,664887,false,false,862,image-keyboard-response,15
true,6,1,4,1,true,z,false,true,0.0-2.0-0.25-0.227-3.227,1,1,0,90,false,stim,false,1,333.69999980926514,2,0,2,91572,WMM2,666735,false,false,865,image-keyboard-response,16
true,6,1,4,0,false,q,true,false,0.0-2.0-0.25-0.228-3.228,1,1,0,90,false,stim,false,0,722.5,2,1,0,91572,WMM2,668968,false,false,868,image-keyboard-response,17
true,6,0,4,1,false,z,true,false,0.0-2.0-0.25-0.229-3.229,1,1,0,81,false,stim,false,1,705.5,2,0,2,91572,WMM2,671186,false,false,871,image-keyboard-response,18
true,6,2,4,1,false,z,true,false,0.0-2.0-0.25-0.230-3.230,1,1,0,68,false,stim,false,1,536.7000000476837,2,1,1,91572,WMM2,673244,false,false,874,image-keyboard-response,19
true,6,2,4,0,false,q,true,true,0.0-2.0-0.25-0.231-3.231,1,1,0,68,false,stim,false,0,1185.7999999523163,2,1,0,91572,WMM2,675952,false,true,877,image-keyboard-response,20
true,6,0,4,1,false,z,true,false,0.0-2.0-0.25-0.232-3.232,1,1,0,81,false,stim,false,1,955.9000000953674,2,1,1,91572,WMM2,678420,false,false,880,image-keyboard-response,21
true,6,1,4,1,true,z,false,true,0.0-2.0-0.25-0.233-3.233,1,1,0,90,false,stim,false,1,498.60000014305115,2,1,1,91572,WMM2,680440,false,false,883,image-keyboard-response,22
true,6,2,4,0,false,q,true,false,0.0-2.0-0.26-0.234-3.234,1,1,0,68,false,stim,false,0,831.0,2,1,0,91572,WMM2,682782,false,false,886,image-keyboard-response,23
true,6,2,4,1,false,z,true,true,0.0-2.0-0.26-0.235-3.235,1,1,0,68,false,stim,false,1,830.5,2,1,1,91572,WMM2,685130,false,true,889,image-keyboard-response,24
true,6,2,4,1,false,z,true,false,0.0-2.0-0.26-0.236-3.236,1,1,0,68,false,stim,false,1,1832.6000001430511,2,0,2,91572,WMM2,688493,false,false,892,image-keyboard-response,25
true,6,0,4,1,false,z,true,false,0.0-2.0-0.26-0.237-3.237,1,1,0,81,false,stim,false,1,866.6000001430511,2,0,2,91572,WMM2,690886,false,false,895,image-keyboard-response,26
true,6,1,4,1,true,z,false,true,0.0-2.0-0.26-0.238-3.238,1,1,0,90,false,stim,false,1,526.3000001907349,2,1,1,91572,WMM2,692929,false,false,898,image-keyboard-response,27
true,6,2,4,0,false,q,true,false,0.0-2.0-0.26-0.239-3.239,1,1,0,68,false,stim,false,0,690.2999999523163,2,1,0,91572,WMM2,695142,false,false,901,image-keyboard-response,28
true,6,1,4,0,false,q,true,false,0.0-2.0-0.26-0.240-3.240,1,1,0,90,false,stim,false,0,631.0999999046326,2,1,0,91572,WMM2,697286,false,false,904,image-keyboard-response,29
true,6,2,4,1,false,z,true,false,0.0-2.0-0.26-0.241-3.241,1,1,0,68,false,stim,false,1,654.7000000476837,2,0,2,91572,WMM2,699464,false,false,907,image-keyboard-response,30
true,6,2,4,1,false,z,true,false,0.0-2.0-0.26-0.242-3.242,1,1,0,68,false,stim,false,1,728.6000001430511,2,1,1,91572,WMM2,701722,false,false,910,image-keyboard-response,31
true,6,0,4,1,false,z,true,false,0.0-2.0-0.27-0.243-3.243,1,1,0,81,false,stim,false,1,635.1999998092651,2,1,1,91572,WMM2,703870,false,false,913,image-keyboard-response,32
true,6,0,4,0,true,q,false,true,0.0-2.0-0.27-0.244-3.244,1,1,0,81,false,stim,false,0,728.2000000476837,2,1,0,91572,WMM2,706109,false,false,916,image-keyboard-response,33
true,6,0,4,1,false,z,true,false,0.0-2.0-0.27-0.245-3.245,1,1,0,81,false,stim,false,1,1052.6000001430511,2,0,2,91572,WMM2,708682,false,false,919,image-keyboard-response,34
true,6,2,4,1,false,z,true,false,0.0-2.0-0.27-0.246-3.246,1,1,0,68,false,stim,false,1,580.2999999523163,2,0,2,91572,WMM2,710785,false,false,922,image-keyboard-response,35
true,6,1,4,1,true,z,false,true,0.0-2.0-0.27-0.247-3.247,1,1,0,90,false,stim,false,1,613.7999999523163,2,0,2,91572,WMM2,712919,false,false,925,image-keyboard-response,36
true,6,0,4,1,false,z,true,false,0.0-2.0-0.27-0.248-3.248,1,1,0,81,false,stim,false,1,569.5999999046326,2,1,1,91572,WMM2,715003,false,false,928,image-keyboard-response,37
true,6,1,4,1,true,z,false,true,0.0-2.0-0.27-0.249-3.249,1,1,0,90,false,stim,false,1,670.1999998092651,2,1,1,91572,WMM2,717190,false,false,931,image-keyboard-response,38
true,6,2,4,0,false,q,true,false,0.0-2.0-0.27-0.250-3.250,1,1,0,68,false,stim,false,0,631.7000000476837,2,1,0,91572,WMM2,719334,false,false,934,image-keyboard-response,39
true,6,1,4,0,false,q,true,true,0.0-2.0-0.27-0.251-3.251,1,1,0,90,false,stim,false,0,986.0,2,1,0,91572,WMM2,721842,false,true,937,image-keyboard-response,40
true,6,1,4,0,false,q,true,false,0.0-2.0-0.28-0.252-3.252,1,1,0,90,false,stim,false,0,551.0999999046326,2,1,0,91572,WMM2,723906,false,false,940,image-keyboard-response,41
true,6,1,4,1,true,z,false,true,0.0-2.0-0.28-0.253-3.253,1,1,0,90,false,stim,false,1,614.5,2,0,2,91572,WMM2,726034,false,false,943,image-keyboard-response,42
true,6,1,4,1,true,z,false,true,0.0-2.0-0.28-0.254-3.254,1,1,0,90,false,stim,false,1,587.2000000476837,2,1,1,91572,WMM2,728140,false,false,946,image-keyboard-response,43
true,6,1,4,0,false,q,true,false,0.0-2.0-0.28-0.255-3.255,1,1,0,90,false,stim,false,0,563.5,2,1,0,91572,WMM2,730221,false,false,949,image-keyboard-response,44
true,6,1,4,1,true,z,false,true,0.0-2.0-0.28-0.256-3.256,1,1,0,90,false,stim,false,1,857.7999999523163,2,1,1,91572,WMM2,732594,false,false,952,image-keyboard-response,45
true,6,1,4,1,true,z,false,true,0.0-2.0-0.28-0.257-3.257,1,1,0,90,false,stim,false,1,618.2999999523163,2,0,2,91572,WMM2,734724,false,false,955,image-keyboard-response,46
true,6,1,4,1,true,z,false,true,0.0-2.0-0.28-0.258-3.258,1,1,0,90,false,stim,false,1,1216.5,2,0,2,91572,WMM2,737456,false,false,958,image-keyboard-response,47
true,6,2,4,0,false,q,true,false,0.0-2.0-0.28-0.259-3.259,1,1,0,68,false,stim,false,0,669.7999999523163,2,1,0,91572,WMM2,739639,false,false,961,image-keyboard-response,48
true,6,1,4,1,true,z,false,true,0.0-2.0-0.28-0.260-3.260,1,1,0,90,false,stim,false,1,394.2999999523163,2,1,1,91572,WMM2,741548,false,false,964,image-keyboard-response,49
true,6,0,4,0,true,q,false,true,0.0-2.0-0.29-0.261-3.261,1,1,0,81,false,stim,false,0,749.6999998092651,2,1,0,91572,WMM2,743811,false,false,967,image-keyboard-response,50
true,6,0,4,0,true,q,false,true,0.0-2.0-0.29-0.262-3.262,1,1,0,81,false,stim,false,0,547.0,2,1,0,91572,WMM2,745875,false,false,970,image-keyboard-response,51
true,6,0,4,0,true,q,false,true,0.0-2.0-0.29-0.263-3.263,1,1,0,81,false,stim,false,0,461.2000000476837,2,1,0,91572,WMM2,747848,false,false,973,image-keyboard-response,52
true,6,1,4,1,true,z,false,true,0.0-2.0-0.29-0.264-3.264,1,1,0,90,false,stim,false,1,449.59999990463257,2,0,2,91572,WMM2,749812,false,false,976,image-keyboard-response,53
true,6,1,4,1,true,z,false,true,0.0-2.0-0.29-0.265-3.265,1,1,0,90,false,stim,false,1,437.0,2,0,2,91572,WMM2,751764,false,false,979,image-keyboard-response,54
true,6,1,4,1,true,z,false,true,0.0-2.0-0.29-0.266-3.266,1,1,0,90,false,stim,false,1,374.59999990463257,2,0,1,91572,WMM2,753657,false,false,982,image-keyboard-response,55
true,6,1,4,1,true,z,false,true,0.0-2.0-0.29-0.267-3.267,1,1,0,90,false,stim,false,1,1214.5,2,0,2,91572,WMM2,756391,false,false,985,image-keyboard-response,56
true,6,1,4,1,true,z,false,false,0.0-2.0-0.29-0.268-3.268,1,1,0,90,false,stim,false,1,961.1000001430511,2,0,1,91572,WMM2,758858,false,true,988,image-keyboard-response,57
true,6,0,4,1,false,z,true,true,0.0-2.0-0.29-0.269-3.269,1,1,0,81,false,stim,false,1,755.2999999523163,2,0,1,91572,WMM2,761133,false,true,991,image-keyboard-response,58
true,6,0,4,1,false,z,true,false,0.0-2.0-0.30-0.270-3.270,1,1,0,81,false,stim,false,1,739.1999998092651,2,0,1,91572,WMM2,763391,false,false,994,image-keyboard-response,59
true,6,1,4,0,false,q,true,true,0.0-2.0-0.30-0.271-3.271,1,1,0,90,false,stim,false,0,648.5,2,1,0,91572,WMM2,765552,false,true,997,image-keyboard-response,60
true,7,1,1,2,false,d,false,false,0.0-2.0-0.30-0.272-3.272,1,0,0,90,true,stim,true,1,515.6999998092651,2,0,1,91572,WMM2,767585,false,false,1000,image-keyboard-response,1
true,7,2,1,0,false,q,true,false,0.0-2.0-0.30-0.273-3.273,1,0,0,68,false,stim,false,1,781.3999998569489,2,0,2,91572,WMM2,769888,false,false,1003,image-keyboard-response,2
true,7,1,1,2,false,d,false,false,0.0-2.0-0.30-0.274-3.274,1,0,0,90,false,stim,true,1,781.7999999523163,2,0,1,91572,WMM2,772181,false,false,1006,image-keyboard-response,3
true,7,1,1,0,false,q,false,false,0.0-2.0-0.30-0.275-3.275,1,0,0,90,false,stim,true,1,859.2000000476837,2,0,2,91572,WMM2,774559,false,false,1009,image-keyboard-response,4
true,7,1,1,0,false,q,true,false,0.0-2.0-0.30-0.276-3.276,1,0,0,90,false,stim,false,0,561.4000000953674,2,1,0,91572,WMM2,776628,false,false,1012,image-keyboard-response,5
true,7,2,1,0,false,q,true,false,0.0-2.0-0.30-0.277-3.277,1,0,0,68,false,stim,false,1,677.5,2,0,2,91572,WMM2,778822,false,false,1015,image-keyboard-response,6
true,7,2,1,0,false,q,true,false,0.0-2.0-0.30-0.278-3.278,1,0,0,68,false,stim,false,0,869.5,2,1,0,91572,WMM2,781208,false,false,1018,image-keyboard-response,7
true,7,0,1,0,true,q,false,true,0.0-2.0-0.31-0.279-3.279,1,0,0,81,false,stim,false,1,958.0,2,0,2,91572,WMM2,783684,false,false,1021,image-keyboard-response,8
true,7,2,1,2,true,d,false,true,0.0-2.0-0.31-0.280-3.280,1,0,0,68,false,stim,false,1,699.3000001907349,2,0,1,91572,WMM2,785902,false,false,1024,image-keyboard-response,9
true,7,2,1,2,true,d,false,true,0.0-2.0-0.31-0.281-3.281,1,0,0,68,false,stim,false,1,533.3999998569489,2,0,1,91572,WMM2,787950,false,false,1027,image-keyboard-response,10
true,7,0,1,0,true,q,false,false,0.0-2.0-0.31-0.282-3.282,1,0,0,81,false,stim,false,1,493.69999980926514,2,0,2,91572,WMM2,789955,false,true,1030,image-keyboard-response,11
true,7,0,1,0,true,q,false,true,0.0-2.0-0.31-0.283-3.283,1,0,0,81,false,stim,false,0,877.2000000476837,2,1,0,91572,WMM2,792352,false,false,1033,image-keyboard-response,12
true,7,2,1,2,true,d,false,true,0.0-2.0-0.31-0.284-3.284,1,0,0,68,false,stim,false,1,774.2000000476837,2,0,1,91572,WMM2,794640,false,false,1036,image-keyboard-response,13
true,7,0,1,0,true,q,false,true,0.0-2.0-0.31-0.285-3.285,1,0,0,81,false,stim,false,0,931.0999999046326,2,1,0,91572,WMM2,797088,false,false,1039,image-keyboard-response,14
true,7,1,1,0,false,q,false,false,0.0-2.0-0.31-0.286-3.286,1,0,0,90,false,stim,true,1,1783.9000000953674,2,0,2,91572,WMM2,800386,false,false,1042,image-keyboard-response,15
true,7,0,1,0,true,q,false,true,0.0-2.0-0.31-0.287-3.287,1,0,0,81,false,stim,false,0,1551.7000000476837,2,1,0,91572,WMM2,803448,false,false,1045,image-keyboard-response,16
true,7,0,1,0,true,q,false,true,0.0-2.0-0.32-0.288-3.288,1,0,0,81,false,stim,false,0,798.5,2,1,0,91572,WMM2,805762,false,false,1048,image-keyboard-response,17
true,7,2,1,0,false,q,true,false,0.0-2.0-0.32-0.289-3.289,1,0,0,68,false,stim,false,1,999.0,2,0,2,91572,WMM2,808275,false,false,1051,image-keyboard-response,18
true,7,1,1,0,false,q,false,false,0.0-2.0-0.32-0.290-3.290,1,0,0,90,false,stim,true,1,694.9000000953674,2,0,2,91572,WMM2,810488,false,false,1054,image-keyboard-response,19
true,7,2,1,2,true,d,false,true,0.0-2.0-0.32-0.291-3.291,1,0,0,68,false,stim,false,1,1478.2999999523163,2,0,1,91572,WMM2,813475,false,false,1057,image-keyboard-response,20
true,7,2,1,2,true,d,false,true,0.0-2.0-0.32-0.292-3.292,1,0,0,68,false,stim,false,1,534.2000000476837,2,0,1,91572,WMM2,815529,false,false,1060,image-keyboard-response,21
true,7,0,1,0,true,q,false,true,0.0-2.0-0.32-0.293-3.293,1,0,0,81,false,stim,false,0,471.0,2,1,0,91572,WMM2,817512,false,false,1063,image-keyboard-response,22
true,7,2,1,0,false,q,true,false,0.0-2.0-0.32-0.294-3.294,1,0,0,68,false,stim,false,1,591.1000001430511,2,0,2,91572,WMM2,819620,false,false,1066,image-keyboard-response,23
true,7,0,1,0,true,q,false,true,0.0-2.0-0.32-0.295-3.295,1,0,0,81,false,stim,false,0,969.4000000953674,2,1,0,91572,WMM2,822108,false,false,1069,image-keyboard-response,24
true,7,2,1,2,true,d,false,true,0.0-2.0-0.32-0.296-3.296,1,0,0,68,false,stim,false,1,953.1000001430511,2,0,1,91572,WMM2,824580,false,false,1072,image-keyboard-response,25
true,7,0,1,0,true,q,false,true,0.0-2.0-0.33-0.297-3.297,1,0,0,81,false,stim,false,0,620.1000001430511,2,1,0,91572,WMM2,826719,false,false,1075,image-keyboard-response,26
true,7,2,1,0,false,q,true,false,0.0-2.0-0.33-0.298-3.298,1,0,0,68,false,stim,false,0,556.7999999523163,2,1,0,91572,WMM2,828788,false,false,1078,image-keyboard-response,27
true,7,0,1,2,false,d,true,false,0.0-2.0-0.33-0.299-3.299,1,0,0,81,false,stim,false,1,775.1999998092651,2,0,1,91572,WMM2,831080,false,false,1081,image-keyboard-response,28
true,7,1,1,2,false,d,false,false,0.0-2.0-0.33-0.300-3.300,1,0,0,90,false,stim,true,1,701.0,2,0,1,91572,WMM2,833304,false,false,1084,image-keyboard-response,29
true,7,2,1,0,false,q,true,false,0.0-2.0-0.33-0.301-3.301,1,0,0,68,false,stim,false,1,1622.7000000476837,2,0,2,91572,WMM2,836440,false,false,1087,image-keyboard-response,30
true,7,1,1,2,false,d,false,false,0.0-2.0-0.33-0.302-3.302,1,0,0,90,false,stim,true,1,550.8999998569489,2,0,1,91572,WMM2,838503,false,false,1090,image-keyboard-response,31
true,7,1,1,0,false,q,false,false,0.0-2.0-0.33-0.303-3.303,1,0,0,90,false,stim,true,1,1260.0999999046326,2,0,2,91572,WMM2,841281,false,false,1093,image-keyboard-response,32
true,7,0,1,0,true,q,false,true,0.0-2.0-0.33-0.304-3.304,1,0,0,81,false,stim,false,1,1621.0,2,0,2,91572,WMM2,844411,false,false,1096,image-keyboard-response,33
true,7,2,1,0,false,q,true,false,0.0-2.0-0.33-0.305-3.305,1,0,0,68,false,stim,false,0,758.7999999523163,2,1,0,91572,WMM2,846689,false,false,1099,image-keyboard-response,34
true,7,2,1,2,true,d,false,true,0.0-2.0-0.34-0.306-3.306,1,0,0,68,false,stim,false,1,796.2999999523163,2,0,1,91572,WMM2,849007,false,false,1102,image-keyboard-response,35
true,7,0,1,0,true,q,false,true,0.0-2.0-0.34-0.307-3.307,1,0,0,81,false,stim,false,0,907.7999999523163,2,1,0,91572,WMM2,851434,false,false,1105,image-keyboard-response,36
true,7,0,1,0,true,q,false,true,0.0-2.0-0.34-0.308-3.308,1,0,0,81,false,stim,false,0,530.2999999523163,2,1,0,91572,WMM2,853477,false,false,1108,image-keyboard-response,37
true,7,2,1,2,true,d,false,true,0.0-2.0-0.34-0.309-3.309,1,0,0,68,false,stim,false,1,497.69999980926514,2,0,1,91572,WMM2,855490,false,false,1111,image-keyboard-response,38
true,7,2,1,2,true,d,false,true,0.0-2.0-0.34-0.310-3.310,1,0,0,68,false,stim,false,1,638.0999999046326,2,0,1,91572,WMM2,857648,false,false,1114,image-keyboard-response,39
true,7,1,1,0,false,q,false,false,0.0-2.0-0.34-0.311-3.311,1,0,0,90,false,stim,true,1,879.5,2,0,2,91572,WMM2,860051,false,false,1117,image-keyboard-response,40
true,7,2,1,0,false,q,true,true,0.0-2.0-0.34-0.312-3.312,1,0,0,68,false,stim,false,1,945.0,2,0,2,91572,WMM2,862514,false,true,1120,image-keyboard-response,41
true,7,2,1,0,false,q,true,false,0.0-2.0-0.34-0.313-3.313,1,0,0,68,false,stim,false,1,509.7999999523163,2,0,2,91572,WMM2,864542,false,false,1123,image-keyboard-response,42
true,7,0,1,0,true,q,false,true,0.0-2.0-0.34-0.314-3.314,1,0,0,81,false,stim,false,0,1367.4000000953674,2,1,0,91572,WMM2,867425,false,false,1126,image-keyboard-response,43
true,7,2,1,0,false,q,true,true,0.0-2.0-0.35-0.315-3.315,1,0,0,68,false,stim,false,1,740.0,2,0,2,91572,WMM2,869682,false,true,1129,image-keyboard-response,44
true,7,2,1,2,true,d,false,false,0.0-2.0-0.35-0.316-3.316,1,0,0,68,false,stim,false,1,1156.2000000476837,2,0,1,91572,WMM2,872360,false,true,1132,image-keyboard-response,45
true,7,0,1,0,true,q,false,true,0.0-2.0-0.35-0.317-3.317,1,0,0,81,false,stim,false,0,1130.3999998569489,2,1,0,91572,WMM2,875003,false,false,1135,image-keyboard-response,46
true,7,1,1,2,false,d,false,false,0.0-2.0-0.35-0.318-3.318,1,0,0,90,false,stim,true,1,674.7000000476837,2,0,1,91572,WMM2,877196,false,false,1138,image-keyboard-response,47
true,7,2,1,0,false,q,true,false,0.0-2.0-0.35-0.319-3.319,1,0,0,68,false,stim,false,1,620.2000000476837,2,0,2,91572,WMM2,879333,false,false,1141,image-keyboard-response,48
true,7,0,1,0,true,q,false,true,0.0-2.0-0.35-0.320-3.320,1,0,0,81,false,stim,false,0,733.7999999523163,2,1,0,91572,WMM2,881586,false,false,1144,image-keyboard-response,49
true,7,2,1,2,true,d,false,false,0.0-2.0-0.35-0.321-3.321,1,0,0,68,false,stim,false,1,735.9000000953674,2,0,1,91572,WMM2,883844,false,true,1147,image-keyboard-response,50
true,7,1,1,0,false,q,false,false,0.0-2.0-0.35-0.322-3.322,1,0,0,90,false,stim,true,1,873.0999999046326,2,1,2,91572,WMM2,886233,false,false,1150,image-keyboard-response,51
true,7,0,1,0,true,q,false,true,0.0-2.0-0.35-0.323-3.323,1,0,0,81,false,stim,false,0,669.0,2,0,0,91572,WMM2,888419,false,false,1153,image-keyboard-response,52
true,7,2,1,2,true,d,false,true,0.0-2.0-0.36-0.324-3.324,1,0,0,68,false,stim,false,1,680.7000000476837,2,1,1,91572,WMM2,890617,false,false,1156,image-keyboard-response,53
true,7,1,1,0,false,q,false,true,0.0-2.0-0.36-0.325-3.325,1,0,0,90,false,stim,true,1,987.8999998569489,2,1,2,91572,WMM2,893125,false,true,1159,image-keyboard-response,54
true,7,2,1,2,true,d,false,true,0.0-2.0-0.36-0.326-3.326,1,0,0,68,false,stim,false,1,764.8999998569489,2,1,1,91572,WMM2,895403,false,false,1162,image-keyboard-response,55
true,7,0,1,0,true,q,false,true,0.0-2.0-0.36-0.327-3.327,1,0,0,81,false,stim,false,0,897.6000001430511,2,0,0,91572,WMM2,897811,false,false,1165,image-keyboard-response,56
true,7,0,1,0,true,q,false,true,0.0-2.0-0.36-0.328-3.328,1,0,0,81,false,stim,false,0,526.2999999523163,2,0,0,91572,WMM2,899859,false,false,1168,image-keyboard-response,57
true,7,1,1,0,false,q,false,false,0.0-2.0-0.36-0.329-3.329,1,0,0,90,false,stim,true,1,1011.0,2,1,2,91572,WMM2,902392,false,false,1171,image-keyboard-response,58
true,7,0,1,0,true,q,false,true,0.0-2.0-0.36-0.330-3.330,1,0,0,81,false,stim,false,0,925.5999999046326,2,0,0,91572,WMM2,904842,false,false,1174,image-keyboard-response,59
true,7,2,1,2,true,d,false,true,0.0-2.0-0.36-0.331-3.331,1,0,0,68,false,stim,false,1,690.6999998092651,2,1,1,91572,WMM2,907045,false,false,1177,image-keyboard-response,60
true,8,1,3,0,false,q,true,false,0.0-2.0-0.36-0.332-3.332,0,1,1,90,true,stim,false,0,1311.2000000476837,2,1,2,91572,WMM2,909872,false,false,1180,image-keyboard-response,1
true,8,0,3,2,false,d,false,false,0.0-2.0-0.37-0.333-3.333,0,1,1,81,false,stim,true,0,762.4000000953674,2,0,0,91572,WMM2,912146,false,false,1183,image-keyboard-response,2
true,8,1,3,0,false,q,true,true,0.0-2.0-0.37-0.334-3.334,0,1,1,90,false,stim,false,0,738.0,2,1,2,91572,WMM2,914393,false,true,1186,image-keyboard-response,3
true,8,0,3,2,false,d,false,false,0.0-2.0-0.37-0.335-3.335,0,1,1,81,false,stim,true,0,1128.9000000953674,2,0,0,91572,WMM2,917040,false,false,1189,image-keyboard-response,4
true,8,1,3,2,false,d,true,false,0.0-2.0-0.37-0.336-3.336,0,1,1,90,false,stim,false,2,1881.8000001907349,2,1,1,91572,WMM2,920428,false,false,1192,image-keyboard-response,5
true,8,2,3,2,true,d,false,true,0.0-2.0-0.37-0.337-3.337,0,1,1,68,false,stim,false,2,1176.7000000476837,2,1,1,91572,WMM2,923120,false,false,1195,image-keyboard-response,6
true,8,0,3,2,false,d,false,false,0.0-2.0-0.37-0.338-3.338,0,1,1,81,false,stim,true,0,1467.2000000476837,2,0,0,91572,WMM2,926097,false,false,1198,image-keyboard-response,7
true,8,2,3,0,false,q,true,false,0.0-2.0-0.37-0.339-3.339,0,1,1,68,false,stim,false,0,1977.9000000953674,2,1,2,91572,WMM2,929603,false,false,1201,image-keyboard-response,8
true,8,2,3,2,true,d,false,true,0.0-2.0-0.37-0.340-3.340,0,1,1,68,false,stim,false,2,1632.7999999523163,2,1,1,91572,WMM2,932757,false,false,1204,image-keyboard-response,9
true,8,1,3,0,false,q,true,false,0.0-2.0-0.37-0.341-3.341,0,1,1,90,false,stim,false,0,1608.0999999046326,2,1,2,91572,WMM2,935883,false,false,1207,image-keyboard-response,10
true,8,2,3,0,false,q,true,false,0.0-2.0-0.38-0.342-3.342,0,1,1,68,false,stim,false,0,943.5,2,1,2,91572,WMM2,938341,false,false,1210,image-keyboard-response,11
true,8,0,3,2,false,d,true,true,0.0-2.0-0.38-0.343-3.343,0,1,1,81,false,stim,false,2,1260.8999998569489,2,1,1,91572,WMM2,941110,false,true,1213,image-keyboard-response,12
true,8,2,3,2,true,d,false,true,0.0-2.0-0.38-0.344-3.344,0,1,1,68,false,stim,false,0,1402.2999999523163,2,0,0,91572,WMM2,944028,false,false,1216,image-keyboard-response,13
true,8,1,3,0,false,q,true,false,0.0-2.0-0.38-0.345-3.345,0,1,1,90,false,stim,false,0,1724.0999999046326,2,1,2,91572,WMM2,947269,false,false,1219,image-keyboard-response,14
true,8,0,3,2,false,d,true,false,0.0-2.0-0.38-0.346-3.346,0,1,1,81,false,stim,false,2,1637.0,2,1,1,91572,WMM2,950422,false,false,1222,image-keyboard-response,15
true,8,0,3,0,true,q,false,false,0.0-2.0-0.38-0.347-3.347,0,1,1,81,false,stim,false,0,1556.3999998569489,2,1,2,91572,WMM2,953505,false,true,1225,image-keyboard-response,16
true,8,2,3,2,true,d,false,true,0.0-2.0-0.38-0.348-3.348,0,1,1,68,false,stim,false,0,1266.7999999523163,2,0,0,91572,WMM2,956283,false,false,1228,image-keyboard-response,17
true,8,2,3,2,true,d,false,true,0.0-2.0-0.38-0.349-3.349,0,1,1,68,false,stim,false,0,539.7999999523163,2,0,0,91572,WMM2,958335,false,false,1231,image-keyboard-response,18
true,8,2,3,2,true,d,false,true,0.0-2.0-0.38-0.350-3.350,0,1,1,68,false,stim,false,2,422.5,2,1,1,91572,WMM2,960279,false,false,1234,image-keyboard-response,19
true,8,2,3,2,true,d,false,true,0.0-2.0-0.39-0.351-3.351,0,1,1,68,false,stim,false,2,539.7000000476837,2,1,1,91572,WMM2,962332,false,false,1237,image-keyboard-response,20
true,8,2,3,2,true,d,false,true,0.0-2.0-0.39-0.352-3.352,0,1,1,68,false,stim,false,0,826.4000000953674,2,0,0,91572,WMM2,964676,false,false,1240,image-keyboard-response,21
true,8,1,3,0,false,q,true,false,0.0-2.0-0.39-0.353-3.353,0,1,1,90,false,stim,false,0,861.3999998569489,2,1,2,91572,WMM2,967056,false,false,1243,image-keyboard-response,22
true,8,2,3,2,true,d,false,true,0.0-2.0-0.39-0.354-3.354,0,1,1,68,false,stim,false,2,633.6999998092651,2,1,1,91572,WMM2,969204,false,false,1246,image-keyboard-response,23
true,8,0,3,2,false,d,true,false,0.0-2.0-0.39-0.355-3.355,0,1,1,81,false,stim,false,2,982.7000000476837,2,1,1,91572,WMM2,971708,false,false,1249,image-keyboard-response,24
true,8,2,3,2,true,d,false,true,0.0-2.0-0.39-0.356-3.356,0,1,1,68,false,stim,false,0,475.5,2,0,0,91572,WMM2,973700,false,false,1252,image-keyboard-response,25
true,8,0,3,0,true,q,false,true,0.0-2.0-0.39-0.357-3.357,0,1,1,81,false,stim,false,0,873.7999999523163,2,1,2,91572,WMM2,976084,false,false,1255,image-keyboard-response,26
true,8,0,3,0,true,q,false,true,0.0-2.0-0.39-0.358-3.358,0,1,1,81,false,stim,false,0,481.5,2,1,2,91572,WMM2,978082,false,false,1258,image-keyboard-response,27
true,8,2,3,2,true,d,false,false,0.0-2.0-0.39-0.359-3.359,0,1,1,68,false,stim,false,0,1103.7999999523163,2,0,0,91572,WMM2,980701,false,true,1261,image-keyboard-response,28
true,8,0,3,0,true,q,false,true,0.0-2.0-0.40-0.360-3.360,0,1,1,81,false,stim,false,0,747.2999999523163,2,1,2,91572,WMM2,982963,false,false,1264,image-keyboard-response,29
true,8,1,3,2,false,d,true,false,0.0-2.0-0.40-0.361-3.361,0,1,1,90,false,stim,false,0,933.8999998569489,2,0,0,91572,WMM2,985418,false,false,1267,image-keyboard-response,30
true,8,0,3,0,true,q,false,true,0.0-2.0-0.40-0.362-3.362,0,1,1,81,false,stim,false,0,503.2999999523163,2,1,2,91572,WMM2,987436,false,false,1270,image-keyboard-response,31
true,8,0,3,2,false,d,true,false,0.0-2.0-0.40-0.363-3.363,0,1,1,81,false,stim,false,2,521.4000000953674,2,1,1,91572,WMM2,989478,false,false,1273,image-keyboard-response,32
true,8,2,3,0,false,q,true,false,0.0-2.0-0.40-0.364-3.364,0,1,1,68,false,stim,false,0,1976.7000000476837,2,1,2,91572,WMM2,992971,false,false,1276,image-keyboard-response,33
true,8,0,3,2,false,d,false,false,0.0-2.0-0.40-0.365-3.365,0,1,1,81,false,stim,true,0,763.5999999046326,2,0,0,91572,WMM2,995252,false,false,1279,image-keyboard-response,34
true,8,0,3,2,false,d,true,false,0.0-2.0-0.40-0.366-3.366,0,1,1,81,false,stim,false,2,473.7999999523163,2,1,1,91572,WMM2,997241,false,false,1282,image-keyboard-response,35
true,8,1,3,2,false,d,true,false,0.0-2.0-0.40-0.367-3.367,0,1,1,90,false,stim,false,0,530.9000000953674,2,0,0,91572,WMM2,999290,false,false,1285,image-keyboard-response,36
true,8,2,3,2,true,d,false,true,0.0-2.0-0.40-0.368-3.368,0,1,1,68,false,stim,false,2,361.39999985694885,2,1,1,91572,WMM2,1001174,false,false,1288,image-keyboard-response,37
true,8,2,3,2,true,d,false,true,0.0-2.0-0.41-0.369-3.369,0,1,1,68,false,stim,false,2,379.89999985694885,2,1,1,91572,WMM2,1003073,false,false,1291,image-keyboard-response,38
true,8,2,3,2,true,d,false,true,0.0-2.0-0.41-0.370-3.370,0,1,1,68,false,stim,false,2,670.3999998569489,2,1,1,91572,WMM2,1005260,false,false,1294,image-keyboard-response,39
true,8,2,3,2,true,d,false,true,0.0-2.0-0.41-0.371-3.371,0,1,1,68,false,stim,false,0,326.39999985694885,2,0,0,91572,WMM2,1007109,false,false,1297,image-keyboard-response,40
true,8,2,3,0,false,q,true,false,0.0-2.0-0.41-0.372-3.372,0,1,1,68,false,stim,false,0,688.2000000476837,2,1,2,91572,WMM2,1009312,false,false,1300,image-keyboard-response,41
true,8,2,3,2,true,d,false,true,0.0-2.0-0.41-0.373-3.373,0,1,1,68,false,stim,false,2,483.5,2,1,1,91572,WMM2,1011325,false,false,1303,image-keyboard-response,42
true,8,2,3,2,true,d,false,true,0.0-2.0-0.41-0.374-3.374,0,1,1,68,false,stim,false,0,622.0,2,0,0,91572,WMM2,1013463,false,false,1306,image-keyboard-response,43
true,8,2,3,2,true,d,false,true,0.0-2.0-0.41-0.375-3.375,0,1,1,68,false,stim,false,0,526.5,2,0,0,91572,WMM2,1015506,false,false,1309,image-keyboard-response,44
true,8,0,3,0,true,q,false,true,0.0-2.0-0.41-0.376-3.376,0,1,1,81,false,stim,false,0,739.0999999046326,2,1,2,91572,WMM2,1017765,false,false,1312,image-keyboard-response,45
true,8,0,3,0,true,q,false,true,0.0-2.0-0.41-0.377-3.377,0,1,1,81,false,stim,false,0,384.7000000476837,2,1,2,91572,WMM2,1019669,false,false,1315,image-keyboard-response,46
true,8,2,3,2,true,d,false,true,0.0-2.0-0.42-0.378-3.378,0,1,1,68,false,stim,false,0,835.7000000476837,2,0,0,91572,WMM2,1022022,false,false,1318,image-keyboard-response,47
true,8,2,3,2,true,d,false,true,0.0-2.0-0.42-0.379-3.379,0,1,1,68,false,stim,false,0,408.90000009536743,2,0,0,91572,WMM2,1023950,false,false,1321,image-keyboard-response,48
true,8,0,3,2,false,d,true,false,0.0-2.0-0.42-0.380-3.380,0,1,1,81,false,stim,false,2,517.2999999523163,2,1,1,91572,WMM2,1025982,false,false,1324,image-keyboard-response,49
true,8,2,3,0,false,q,true,false,0.0-2.0-0.42-0.381-3.381,0,1,1,68,false,stim,false,0,869.5,2,0,2,91572,WMM2,1028371,false,false,1327,image-keyboard-response,50
true,8,2,3,0,false,q,true,true,0.0-2.0-0.42-0.382-3.382,0,1,1,68,false,stim,false,0,669.2999999523163,2,0,2,91572,WMM2,1030554,false,true,1330,image-keyboard-response,51
true,8,0,3,2,false,d,true,false,0.0-2.0-0.42-0.383-3.383,0,1,1,81,false,stim,false,2,835.7999999523163,2,1,1,91572,WMM2,1032912,false,false,1333,image-keyboard-response,52
true,8,2,3,2,true,d,false,false,0.0-2.0-0.42-0.384-3.384,0,1,1,68,false,stim,false,2,907.2999999523163,2,1,1,91572,WMM2,1035335,false,true,1336,image-keyboard-response,53
true,8,1,3,2,false,d,true,true,0.0-2.0-0.42-0.385-3.385,0,1,1,90,false,stim,false,0,688.8000001907349,2,0,0,91572,WMM2,1037539,false,true,1339,image-keyboard-response,54
true,8,0,3,0,true,q,false,true,0.0-2.0-0.42-0.386-3.386,0,1,1,81,false,stim,false,0,853.1999998092651,2,0,2,91572,WMM2,1039912,false,false,1342,image-keyboard-response,55
true,8,2,3,2,true,d,false,true,0.0-2.0-0.43-0.387-3.387,0,1,1,68,false,stim,false,2,711.0,2,1,1,91572,WMM2,1042140,false,false,1345,image-keyboard-response,56
true,9,0,1,2,false,d,false,false,0.0-2.0-0.43-0.388-3.388,0,1,0,81,true,stim,true,0,1186.4000000953674,2,0,2,91572,WMM2,1044843,false,false,1348,image-keyboard-response,1
true,9,2,1,2,true,d,false,false,0.0-2.0-0.43-0.389-3.389,0,1,0,68,false,stim,false,2,1386.0,2,1,1,91572,WMM2,1047741,false,true,1351,image-keyboard-response,2
true,9,2,1,0,false,q,false,true,0.0-2.0-0.43-0.390-3.390,0,1,0,68,false,stim,true,2,635.2000000476837,2,0,0,91572,WMM2,1049889,false,true,1354,image-keyboard-response,3
true,9,0,1,2,false,d,false,false,0.0-2.0-0.43-0.391-3.391,0,1,0,81,false,stim,true,0,475.40000009536743,2,0,2,91572,WMM2,1051882,false,false,1357,image-keyboard-response,4
true,9,1,1,2,false,d,true,false,0.0-2.0-0.43-0.392-3.392,0,1,0,90,false,stim,false,2,750.5,2,1,1,91572,WMM2,1054161,false,false,1360,image-keyboard-response,5
true,9,2,1,0,false,q,false,true,0.0-2.0-0.43-0.393-3.393,0,1,0,68,false,stim,true,2,844.5,2,0,0,91572,WMM2,1056524,false,true,1363,image-keyboard-response,6
true,9,2,1,0,false,q,false,false,0.0-2.0-0.43-0.394-3.394,0,1,0,68,false,stim,true,2,485.0,2,0,0,91572,WMM2,1058521,false,false,1366,image-keyboard-response,7
true,9,2,1,2,true,d,false,true,0.0-2.0-0.43-0.395-3.395,0,1,0,68,false,stim,false,0,630.8999998569489,2,0,2,91572,WMM2,1060664,false,false,1369,image-keyboard-response,8
true,9,0,1,2,false,d,true,false,0.0-2.0-0.44-0.396-3.396,0,1,0,81,false,stim,false,2,1302.8999998569489,2,1,1,91572,WMM2,1063488,false,false,1372,image-keyboard-response,9
true,9,2,1,0,false,q,false,false,0.0-2.0-0.44-0.397-3.397,0,1,0,68,false,stim,true,2,1709.2999999523163,2,0,0,91572,WMM2,1066719,false,false,1375,image-keyboard-response,10
true,9,1,1,2,false,d,true,false,0.0-2.0-0.44-0.398-3.398,0,1,0,90,false,stim,false,0,868.7000000476837,2,0,2,91572,WMM2,1069102,false,false,1378,image-keyboard-response,11
true,9,2,1,2,true,d,false,true,0.0-2.0-0.44-0.399-3.399,0,1,0,68,false,stim,false,0,1265.5,2,0,2,91572,WMM2,1071888,false,false,1381,image-keyboard-response,12
true,9,2,1,2,true,d,false,true,0.0-2.0-0.44-0.400-3.400,0,1,0,68,false,stim,false,2,1015.5,2,1,1,91572,WMM2,1074416,false,false,1384,image-keyboard-response,13
true,9,2,1,2,true,d,false,true,0.0-2.0-0.44-0.401-3.401,0,1,0,68,false,stim,false,0,765.4000000953674,2,0,2,91572,WMM2,1076695,false,false,1387,image-keyboard-response,14
true,9,0,1,0,true,q,false,false,0.0-2.0-0.44-0.402-3.402,0,1,0,81,false,stim,false,2,991.9000000953674,2,0,0,91572,WMM2,1079208,false,true,1390,image-keyboard-response,15
true,9,2,1,2,true,d,false,true,0.0-2.0-0.44-0.403-3.403,0,1,0,68,false,stim,false,2,582.9000000953674,2,1,1,91572,WMM2,1081304,false,false,1393,image-keyboard-response,16
true,9,0,1,0,true,q,false,true,0.0-2.0-0.44-0.404-3.404,0,1,0,81,false,stim,false,2,748.1000001430511,2,0,0,91572,WMM2,1083573,false,false,1396,image-keyboard-response,17
true,9,2,1,2,true,d,false,true,0.0-2.0-0.45-0.405-3.405,0,1,0,68,false,stim,false,2,902.2000000476837,2,1,1,91572,WMM2,1085985,false,false,1399,image-keyboard-response,18
true,9,2,1,2,true,d,false,true,0.0-2.0-0.45-0.406-3.406,0,1,0,68,false,stim,false,2,563.0999999046326,2,1,1,91572,WMM2,1088068,false,false,1402,image-keyboard-response,19
true,9,2,1,2,true,d,false,true,0.0-2.0-0.45-0.407-3.407,0,1,0,68,false,stim,false,2,581.0999999046326,2,1,1,91572,WMM2,1090167,false,false,1405,image-keyboard-response,20
true,9,0,1,0,true,q,false,true,0.0-2.0-0.45-0.408-3.408,0,1,0,81,false,stim,false,2,1028.5,2,0,0,91572,WMM2,1092720,false,false,1408,image-keyboard-response,21
true,9,0,1,0,true,q,false,true,0.0-2.0-0.45-0.409-3.409,0,1,0,81,false,stim,false,2,649.7000000476837,2,0,0,91572,WMM2,1094888,false,false,1411,image-keyboard-response,22
true,9,0,1,0,true,q,false,true,0.0-2.0-0.45-0.410-3.410,0,1,0,81,false,stim,false,2,887.7000000476837,2,0,0,91572,WMM2,1097286,false,false,1414,image-keyboard-response,23
true,9,2,1,2,true,d,false,false,0.0-2.0-0.45-0.411-3.411,0,1,0,68,false,stim,false,0,958.1000001430511,2,1,2,91572,WMM2,1099759,false,true,1417,image-keyboard-response,24
true,9,1,1,2,false,d,true,false,0.0-2.0-0.45-0.412-3.412,0,1,0,90,false,stim,false,0,801.0,2,1,2,91572,WMM2,1102068,false,false,1420,image-keyboard-response,25
true,9,2,1,2,true,d,false,true,0.0-2.0-0.45-0.413-3.413,0,1,0,68,false,stim,false,0,783.7000000476837,2,1,2,91572,WMM2,1104366,false,false,1423,image-keyboard-response,26
true,9,2,1,2,true,d,false,true,0.0-2.0-0.46-0.414-3.414,0,1,0,68,false,stim,false,0,701.9000000953674,2,1,2,91572,WMM2,1106583,false,false,1426,image-keyboard-response,27
true,9,2,1,2,true,d,false,true,0.0-2.0-0.46-0.415-3.415,0,1,0,68,false,stim,false,0,659.2999999523163,2,1,2,91572,WMM2,1108763,false,false,1429,image-keyboard-response,28
true,9,0,1,2,false,d,true,false,0.0-2.0-0.46-0.416-3.416,0,1,0,81,false,stim,false,2,575.5,2,1,1,91572,WMM2,1110850,false,false,1432,image-keyboard-response,29
true,9,1,1,0,false,q,true,true,0.0-2.0-0.46-0.417-3.417,0,1,0,90,false,stim,false,2,384.7999999523163,2,0,0,91572,WMM2,1112765,false,true,1435,image-keyboard-response,30
true,10,1,3,1,true,z,false,true,0.0-2.0-0.46-0.418-3.418,0,1,1,90,true,stim,false,0,947.0,2,0,0,91572,WMM2,1115227,false,false,1438,image-keyboard-response,1
true,10,1,3,1,true,z,false,false,0.0-2.0-0.46-0.419-3.419,0,1,1,90,false,stim,false,0,347.10000014305115,2,0,0,91572,WMM2,1117082,false,true,1441,image-keyboard-response,2
true,10,2,3,2,true,d,false,true,0.0-2.0-0.46-0.420-3.420,0,1,1,68,false,stim,false,2,611.9000000953674,2,1,1,91572,WMM2,1119215,false,false,1444,image-keyboard-response,3
true,10,2,3,2,true,d,false,true,0.0-2.0-0.46-0.421-3.421,0,1,1,68,false,stim,false,2,472.0,2,1,1,91572,WMM2,1121207,false,false,1447,image-keyboard-response,4
true,10,0,3,2,false,d,true,true,0.0-2.0-0.46-0.422-3.422,0,1,1,81,false,stim,false,2,1072.7999999523163,2,1,2,91572,WMM2,1123800,false,true,1450,image-keyboard-response,5
true,10,0,3,2,false,d,true,false,0.0-2.0-0.47-0.423-3.423,0,1,1,81,false,stim,false,2,440.2000000476837,2,1,2,91572,WMM2,1125759,false,false,1453,image-keyboard-response,6
true,10,2,3,1,false,z,true,true,0.0-2.0-0.47-0.424-3.424,0,1,1,68,false,stim,false,0,1031.1999998092651,2,0,0,91572,WMM2,1128301,false,true,1456,image-keyboard-response,7
true,10,1,3,2,false,d,true,true,0.0-2.0-0.47-0.425-3.425,0,1,1,90,false,stim,false,2,895.2999999523163,2,1,1,91572,WMM2,1130715,false,true,1459,image-keyboard-response,8
true,10,0,3,1,false,z,false,false,0.0-2.0-0.47-0.426-3.426,0,1,1,81,false,stim,true,0,1066.8999998569489,2,0,0,91572,WMM2,1133308,false,false,1462,image-keyboard-response,9
true,10,2,3,2,true,d,false,true,0.0-2.0-0.47-0.427-3.427,0,1,1,68,false,stim,false,2,492.59999990463257,2,1,2,91572,WMM2,1135316,false,false,1465,image-keyboard-response,10
true,10,2,3,2,true,d,false,true,0.0-2.0-0.47-0.428-3.428,0,1,1,68,false,stim,false,2,644.5,2,1,2,91572,WMM2,1137475,false,false,1468,image-keyboard-response,11
true,10,1,3,1,true,z,false,true,0.0-2.0-0.47-0.429-3.429,0,1,1,90,false,stim,false,0,699.8000001907349,2,0,0,91572,WMM2,1139693,false,false,1471,image-keyboard-response,12
true,10,1,3,2,false,d,true,false,0.0-2.0-0.47-0.430-3.430,0,1,1,90,false,stim,false,2,978.7000000476837,2,1,1,91572,WMM2,1142186,false,false,1474,image-keyboard-response,13
true,10,2,3,2,true,d,false,true,0.0-2.0-0.47-0.431-3.431,0,1,1,68,false,stim,false,2,816.7000000476837,2,1,1,91572,WMM2,1144519,false,false,1477,image-keyboard-response,14
true,10,0,3,2,false,d,true,false,0.0-2.0-0.48-0.432-3.432,0,1,1,81,false,stim,false,2,1119.3000001907349,2,1,1,91572,WMM2,1147154,false,false,1480,image-keyboard-response,15
true,10,2,3,2,true,d,false,true,0.0-2.0-0.48-0.433-3.433,0,1,1,68,false,stim,false,2,712.6000001430511,2,1,1,91572,WMM2,1149382,false,false,1483,image-keyboard-response,16
true,10,1,3,2,false,d,true,false,0.0-2.0-0.48-0.434-3.434,0,1,1,90,false,stim,false,2,911.2000000476837,2,1,1,91572,WMM2,1151810,false,false,1486,image-keyboard-response,17
true,10,1,3,1,true,z,false,true,0.0-2.0-0.48-0.435-3.435,0,1,1,90,false,stim,false,0,821.3999998569489,2,0,0,91572,WMM2,1154149,false,false,1489,image-keyboard-response,18
true,10,2,3,2,true,d,false,true,0.0-2.0-0.48-0.436-3.436,0,1,1,68,false,stim,false,2,866.0,2,1,2,91572,WMM2,1156526,false,false,1492,image-keyboard-response,19
true,10,2,3,2,true,d,false,true,0.0-2.0-0.48-0.437-3.437,0,1,1,68,false,stim,false,2,679.5,2,1,2,91572,WMM2,1158725,false,false,1495,image-keyboard-response,20
true,10,1,3,1,true,z,false,true,0.0-2.0-0.48-0.438-3.438,0,1,1,90,false,stim,false,0,927.8000001907349,2,0,0,91572,WMM2,1161168,false,false,1498,image-keyboard-response,21
true,10,2,3,2,true,d,false,true,0.0-2.0-0.48-0.439-3.439,0,1,1,68,false,stim,false,2,808.7000000476837,2,1,2,91572,WMM2,1163505,false,false,1501,image-keyboard-response,22
true,10,1,3,1,true,z,false,true,0.0-2.0-0.48-0.440-3.440,0,1,1,90,false,stim,false,0,471.90000009536743,2,0,0,91572,WMM2,1165493,false,false,1504,image-keyboard-response,23
true,10,0,3,2,false,d,true,false,0.0-2.0-0.49-0.441-3.441,0,1,1,81,false,stim,false,2,1133.7000000476837,2,1,1,91572,WMM2,1168146,false,false,1507,image-keyboard-response,24
true,10,2,3,1,false,z,true,false,0.0-2.0-0.49-0.442-3.442,0,1,1,68,false,stim,false,0,220.59999990463257,2,0,0,91572,WMM2,1169886,false,false,1510,image-keyboard-response,25
true,10,1,3,2,false,d,true,true,0.0-2.0-0.49-0.443-3.443,0,1,1,90,false,stim,false,2,356.89999985694885,2,1,2,91572,WMM2,1171768,false,true,1513,image-keyboard-response,26
true,10,2,3,1,false,z,true,false,0.0-2.0-0.49-0.444-3.444,0,1,1,68,false,stim,false,0,998.2999999523163,2,0,0,91572,WMM2,1174291,false,false,1516,image-keyboard-response,27
true,10,1,3,2,false,d,true,false,0.0-2.0-0.49-0.445-3.445,0,1,1,90,false,stim,false,2,498.59999990463257,2,1,2,91572,WMM2,1176309,false,false,1519,image-keyboard-response,28
true,10,2,3,1,false,z,true,false,0.0-2.0-0.49-0.446-3.446,0,1,1,68,false,stim,false,0,635.0999999046326,2,0,0,91572,WMM2,1178462,false,false,1522,image-keyboard-response,29
true,10,1,3,2,false,d,true,true,0.0-2.0-0.49-0.447-3.447,0,1,1,90,false,stim,false,2,466.19999980926514,2,1,1,91572,WMM2,1180450,false,true,1525,image-keyboard-response,30
true,10,2,3,2,true,d,false,true,0.0-2.0-0.49-0.448-3.448,0,1,1,68,false,stim,false,2,693.0999999046326,2,1,2,91572,WMM2,1182663,false,false,1528,image-keyboard-response,31
true,10,1,3,2,false,d,true,false,0.0-2.0-0.49-0.449-3.449,0,1,1,90,false,stim,false,2,560.7999999523163,2,1,1,91572,WMM2,1184756,false,false,1531,image-keyboard-response,32
true,10,1,3,2,false,d,true,false,0.0-2.0-0.50-0.450-3.450,0,1,1,90,false,stim,false,2,471.60000014305115,2,1,1,91572,WMM2,1186744,false,false,1534,image-keyboard-response,33
true,10,2,3,2,true,d,false,true,0.0-2.0-0.50-0.451-3.451,0,1,1,68,false,stim,false,2,667.7000000476837,2,1,2,91572,WMM2,1188928,false,false,1537,image-keyboard-response,34
true,10,2,3,2,true,d,false,true,0.0-2.0-0.50-0.452-3.452,0,1,1,68,false,stim,false,2,1378.9000000953674,2,1,1,91572,WMM2,1191836,false,false,1540,image-keyboard-response,35
true,10,2,3,2,true,d,false,true,0.0-2.0-0.50-0.453-3.453,0,1,1,68,false,stim,false,2,772.0,2,1,1,91572,WMM2,1194130,false,false,1543,image-keyboard-response,36
true,10,0,3,1,false,z,false,true,0.0-2.0-0.50-0.454-3.454,0,1,1,81,false,stim,true,0,1128.4000000953674,2,0,0,91572,WMM2,1196776,false,true,1546,image-keyboard-response,37
true,10,0,3,1,false,z,false,false,0.0-2.0-0.50-0.455-3.455,0,1,1,81,false,stim,true,0,476.60000014305115,2,0,0,91572,WMM2,1198775,false,false,1549,image-keyboard-response,38
true,10,0,3,1,false,z,false,true,0.0-2.0-0.50-0.456-3.456,0,1,1,81,false,stim,true,0,769.7000000476837,2,0,0,91572,WMM2,1201062,false,true,1552,image-keyboard-response,39
true,10,2,3,2,true,d,false,true,0.0-2.0-0.50-0.457-3.457,0,1,1,68,false,stim,false,2,824.3999998569489,2,1,2,91572,WMM2,1203401,false,false,1555,image-keyboard-response,40
true,10,2,3,2,true,d,false,true,0.0-2.0-0.50-0.458-3.458,0,1,1,68,false,stim,false,2,1577.9000000953674,2,1,2,91572,WMM2,1206499,false,false,1558,image-keyboard-response,41
true,10,0,3,1,false,z,false,true,0.0-2.0-0.51-0.459-3.459,0,1,1,81,false,stim,true,0,834.7999999523163,2,0,0,91572,WMM2,1208851,false,true,1561,image-keyboard-response,42
true,10,2,3,2,true,d,false,true,0.0-2.0-0.51-0.460-3.460,0,1,1,68,false,stim,false,2,923.8999998569489,2,1,2,91572,WMM2,1211293,false,false,1564,image-keyboard-response,43
true,10,0,3,2,false,d,true,true,0.0-2.0-0.51-0.461-3.461,0,1,1,81,false,stim,false,2,858.1000001430511,2,1,1,91572,WMM2,1213666,false,true,1567,image-keyboard-response,44
true,10,2,3,1,false,z,true,false,0.0-2.0-0.51-0.462-3.462,0,1,1,68,false,stim,false,0,2806.399999856949,2,0,0,91572,WMM2,1217987,false,false,1570,image-keyboard-response,45
true,10,2,3,2,true,d,false,true,0.0-2.0-0.51-0.463-3.463,0,1,1,68,false,stim,false,2,497.7000000476837,2,1,1,91572,WMM2,1219996,false,false,1573,image-keyboard-response,46
true,10,0,3,2,false,d,true,false,0.0-2.0-0.51-0.464-3.464,0,1,1,81,false,stim,false,2,545.9000000953674,2,1,2,91572,WMM2,1222064,false,false,1576,image-keyboard-response,47
true,10,1,3,2,false,d,true,true,0.0-2.0-0.51-0.465-3.465,0,1,1,90,false,stim,false,2,1126.5,2,1,1,91572,WMM2,1224707,false,true,1579,image-keyboard-response,48
true,10,2,3,2,true,d,false,true,0.0-2.0-0.51-0.466-3.466,0,1,1,68,false,stim,false,2,930.7999999523163,2,1,2,91572,WMM2,1227154,false,false,1582,image-keyboard-response,49
true,10,0,3,1,false,z,false,false,0.0-2.0-0.51-0.467-3.467,0,1,1,81,false,stim,true,0,923.6000001430511,2,0,0,91572,WMM2,1229587,false,false,1585,image-keyboard-response,50
true,10,2,3,1,false,z,true,true,0.0-2.0-0.52-0.468-3.468,0,1,1,68,false,stim,false,0,453.90000009536743,2,1,0,91572,WMM2,1231570,false,true,1588,image-keyboard-response,51
true,10,2,3,1,false,z,true,false,0.0-2.0-0.52-0.469-3.469,0,1,1,68,false,stim,false,0,387.90000009536743,2,1,0,91572,WMM2,1233479,false,false,1591,image-keyboard-response,52
true,10,2,3,2,true,d,false,true,0.0-2.0-0.52-0.470-3.470,0,1,1,68,false,stim,false,2,496.90000009536743,2,0,2,91572,WMM2,1235491,false,false,1594,image-keyboard-response,53
true,10,1,3,2,false,d,true,false,0.0-2.0-0.52-0.471-3.471,0,1,1,90,false,stim,false,2,1362.7999999523163,2,1,1,91572,WMM2,1238373,false,false,1597,image-keyboard-response,54
true,10,0,3,2,false,d,true,true,0.0-2.0-0.52-0.472-3.472,0,1,1,81,false,stim,false,2,415.89999985694885,2,1,1,91572,WMM2,1240303,false,true,1600,image-keyboard-response,55
true,10,2,3,2,true,d,false,true,0.0-2.0-0.52-0.473-3.473,0,1,1,68,false,stim,false,2,837.4000000953674,2,1,1,91572,WMM2,1242674,false,false,1603,image-keyboard-response,56
true,10,0,3,2,false,d,true,true,0.0-2.0-0.52-0.474-3.474,0,1,1,81,false,stim,false,2,1011.0999999046326,2,0,2,91572,WMM2,1245202,false,true,1606,image-keyboard-response,57
true,10,2,3,1,false,z,true,false,0.0-2.0-0.52-0.475-3.475,0,1,1,68,false,stim,false,0,1185.2000000476837,2,1,0,91572,WMM2,1247904,false,false,1609,image-keyboard-response,58
true,10,1,3,2,false,d,true,false,0.0-2.0-0.52-0.476-3.476,0,1,1,90,false,stim,false,2,406.7999999523163,2,0,2,91572,WMM2,1249823,false,false,1612,image-keyboard-response,59
true,10,1,3,2,false,d,true,false,0.0-2.0-0.53-0.477-3.477,0,1,1,90,false,stim,false,2,700.0999999046326,2,1,1,91572,WMM2,1252041,false,false,1615,image-keyboard-response,60
true,11,1,4,2,false,d,true,false,0.0-2.0-0.53-0.478-3.478,1,1,0,90,true,stim,false,2,1176.5999999046326,2,0,2,91572,WMM2,1254733,false,false,1618,image-keyboard-response,1
true,11,0,4,2,false,d,true,true,0.0-2.0-0.53-0.479-3.479,1,1,0,81,false,stim,false,2,877.3000001907349,2,0,2,91572,WMM2,1257127,false,true,1621,image-keyboard-response,2
true,11,2,4,1,false,z,true,false,0.0-2.0-0.53-0.480-3.480,1,1,0,68,false,stim,false,1,608.0999999046326,2,1,0,91572,WMM2,1259244,false,false,1624,image-keyboard-response,3
true,11,1,4,2,false,d,true,true,0.0-2.0-0.53-0.481-3.481,1,1,0,90,false,stim,false,2,1340.5,2,0,2,91572,WMM2,1262101,false,true,1627,image-keyboard-response,4
true,11,0,4,1,false,z,true,false,0.0-2.0-0.53-0.482-3.482,1,1,0,81,false,stim,false,1,815.5999999046326,2,1,0,91572,WMM2,1264444,false,false,1630,image-keyboard-response,5
true,11,2,4,2,true,d,false,true,0.0-2.0-0.53-0.483-3.483,1,1,0,68,false,stim,false,2,443.60000014305115,2,1,1,91572,WMM2,1266397,false,false,1633,image-keyboard-response,6
true,11,1,4,1,true,z,false,true,0.0-2.0-0.53-0.484-3.484,1,1,0,90,false,stim,false,1,1593.0999999046326,2,1,0,91572,WMM2,1269516,false,false,1636,image-keyboard-response,7
true,11,2,4,2,true,d,false,true,0.0-2.0-0.53-0.485-3.485,1,1,0,68,false,stim,false,2,1102.4000000953674,2,1,1,91572,WMM2,1272137,false,false,1639,image-keyboard-response,8
true,11,0,4,2,false,d,true,false,0.0-2.0-0.54-0.486-3.486,1,1,0,81,false,stim,false,2,1528.0,2,1,1,91572,WMM2,1275179,false,false,1642,image-keyboard-response,9
true,11,0,4,1,false,z,true,false,0.0-2.0-0.54-0.487-3.487,1,1,0,81,false,stim,false,1,716.4000000953674,2,1,0,91572,WMM2,1277407,false,false,1645,image-keyboard-response,10
true,11,2,4,2,true,d,false,true,0.0-2.0-0.54-0.488-3.488,1,1,0,68,false,stim,false,2,638.2999999523163,2,1,1,91572,WMM2,1279561,false,false,1648,image-keyboard-response,11
true,11,2,4,2,true,d,false,true,0.0-2.0-0.54-0.489-3.489,1,1,0,68,false,stim,false,2,704.6999998092651,2,0,2,91572,WMM2,1281779,false,false,1651,image-keyboard-response,12
true,11,2,4,2,true,d,false,true,0.0-2.0-0.54-0.490-3.490,1,1,0,68,false,stim,false,2,579.7000000476837,2,1,1,91572,WMM2,1283877,false,false,1654,image-keyboard-response,13
true,11,0,4,1,false,z,true,true,0.0-2.0-0.54-0.491-3.491,1,1,0,81,false,stim,false,1,918.0999999046326,2,1,0,91572,WMM2,1286309,false,true,1657,image-keyboard-response,14
true,11,2,4,2,true,d,false,true,0.0-2.0-0.54-0.492-3.492,1,1,0,68,false,stim,false,2,651.0999999046326,2,0,2,91572,WMM2,1288478,false,false,1660,image-keyboard-response,15
true,11,0,4,1,false,z,true,true,0.0-2.0-0.54-0.493-3.493,1,1,0,81,false,stim,false,1,630.2999999523163,2,1,0,91572,WMM2,1290616,false,true,1663,image-keyboard-response,16
true,11,2,4,2,true,d,false,true,0.0-2.0-0.54-0.494-3.494,1,1,0,68,false,stim,false,2,726.9000000953674,2,0,2,91572,WMM2,1292859,false,false,1666,image-keyboard-response,17
true,11,1,4,2,false,d,true,false,0.0-2.0-0.55-0.495-3.495,1,1,0,90,false,stim,false,2,1043.7999999523163,2,1,1,91572,WMM2,1295421,false,false,1669,image-keyboard-response,18
true,11,2,4,2,true,d,false,true,0.0-2.0-0.55-0.496-3.496,1,1,0,68,false,stim,false,2,608.3999998569489,2,0,2,91572,WMM2,1297544,false,false,1672,image-keyboard-response,19
true,11,2,4,2,true,d,false,true,0.0-2.0-0.55-0.497-3.497,1,1,0,68,false,stim,false,2,571.7999999523163,2,1,1,91572,WMM2,1299633,false,false,1675,image-keyboard-response,20
true,11,2,4,2,true,d,false,true,0.0-2.0-0.55-0.498-3.498,1,1,0,68,false,stim,false,2,457.09999990463257,2,0,2,91572,WMM2,1301607,false,false,1678,image-keyboard-response,21
true,11,0,4,1,false,z,true,false,0.0-2.0-0.55-0.499-3.499,1,1,0,81,false,stim,false,1,882.7000000476837,2,1,0,91572,WMM2,1304010,false,false,1681,image-keyboard-response,22
true,11,1,4,2,false,d,true,false,0.0-2.0-0.55-0.500-3.500,1,1,0,90,false,stim,false,2,390.10000014305115,2,1,1,91572,WMM2,1305918,false,false,1684,image-keyboard-response,23
true,11,2,4,2,true,d,false,true,0.0-2.0-0.55-0.501-3.501,1,1,0,68,false,stim,false,2,480.0,2,0,2,91572,WMM2,1307920,false,false,1687,image-keyboard-response,24
true,11,0,4,1,false,z,true,false,0.0-2.0-0.55-0.502-3.502,1,1,0,81,false,stim,false,1,583.5,2,1,0,91572,WMM2,1310028,false,false,1690,image-keyboard-response,25
true,11,1,4,1,true,z,false,true,0.0-2.0-0.55-0.503-3.503,1,1,0,90,false,stim,false,1,481.7999999523163,2,1,0,91572,WMM2,1312027,false,false,1693,image-keyboard-response,26
true,11,2,4,2,true,d,false,true,0.0-2.0-0.56-0.504-3.504,1,1,0,68,false,stim,false,2,625.0,2,1,1,91572,WMM2,1314164,false,false,1696,image-keyboard-response,27
true,11,1,4,1,true,z,false,false,0.0-2.0-0.56-0.505-3.505,1,1,0,90,false,stim,false,1,899.1000001430511,2,1,0,91572,WMM2,1316578,false,true,1699,image-keyboard-response,28
true,11,2,4,2,true,d,false,true,0.0-2.0-0.56-0.506-3.506,1,1,0,68,false,stim,false,2,611.0999999046326,2,0,2,91572,WMM2,1318720,false,false,1702,image-keyboard-response,29
true,11,2,4,1,false,z,true,false,0.0-2.0-0.56-0.507-3.507,1,1,0,68,false,stim,false,1,390.30000019073486,2,1,0,91572,WMM2,1320635,false,false,1705,image-keyboard-response,30
false,11,-1,4,2,false,d,true,false,0.0-2.0-0.56-0.508-3.508,1,1,0,,false,stim,false,2,,2,1,1,91572,WMM2,1325157,false,false,1708,image-keyboard-response,31
true,11,2,4,1,false,z,true,false,0.0-2.0-0.56-0.509-3.509,1,1,0,68,false,stim,false,1,694.0,2,1,0,91572,WMM2,1327363,false,false,1711,image-keyboard-response,32
true,11,0,4,2,false,d,true,false,0.0-2.0-0.56-0.510-3.510,1,1,0,81,false,stim,false,2,531.4000000953674,2,0,2,91572,WMM2,1329406,false,false,1714,image-keyboard-response,33
true,11,1,4,2,false,d,true,false,0.0-2.0-0.56-0.511-3.511,1,1,0,90,false,stim,false,2,383.2000000476837,2,0,2,91572,WMM2,1331309,false,false,1717,image-keyboard-response,34
true,11,2,4,2,true,d,false,true,0.0-2.0-0.56-0.512-3.512,1,1,0,68,false,stim,false,2,1055.4000000953674,2,1,1,91572,WMM2,1333877,false,false,1720,image-keyboard-response,35
true,11,1,4,2,false,d,true,false,0.0-2.0-0.57-0.513-3.513,1,1,0,90,false,stim,false,2,795.1999998092651,2,0,2,91572,WMM2,1336195,false,false,1723,image-keyboard-response,36
true,11,2,4,2,true,d,false,true,0.0-2.0-0.57-0.514-3.514,1,1,0,68,false,stim,false,2,464.5,2,0,2,91572,WMM2,1338178,false,false,1726,image-keyboard-response,37
true,11,0,4,2,false,d,true,false,0.0-2.0-0.57-0.515-3.515,1,1,0,81,false,stim,false,2,746.8999998569489,2,1,1,91572,WMM2,1340447,false,false,1729,image-keyboard-response,38
true,11,2,4,1,false,z,true,true,0.0-2.0-0.57-0.516-3.516,1,1,0,68,false,stim,false,1,9.0,2,1,0,91572,WMM2,1341970,false,true,1732,image-keyboard-response,39
true,11,2,4,1,false,z,true,false,0.0-2.0-0.57-0.517-3.517,1,1,0,68,false,stim,false,1,626.7000000476837,2,1,0,91572,WMM2,1344129,false,false,1735,image-keyboard-response,40
true,11,2,4,1,false,z,true,false,0.0-2.0-0.57-0.518-3.518,1,1,0,68,false,stim,false,1,930.5,2,1,0,91572,WMM2,1346587,false,false,1738,image-keyboard-response,41
true,11,2,4,2,true,d,false,true,0.0-2.0-0.57-0.519-3.519,1,1,0,68,false,stim,false,2,396.39999985694885,2,0,2,91572,WMM2,1348495,false,false,1741,image-keyboard-response,42
true,11,0,4,2,false,d,true,false,0.0-2.0-0.57-0.520-3.520,1,1,0,81,false,stim,false,2,536.5,2,1,1,91572,WMM2,1350543,false,false,1744,image-keyboard-response,43
true,11,1,4,2,false,d,true,false,0.0-2.0-0.57-0.521-3.521,1,1,0,90,false,stim,false,2,1042.5,2,1,1,91572,WMM2,1353108,false,false,1747,image-keyboard-response,44
true,11,0,4,2,false,d,true,false,0.0-2.0-0.58-0.522-3.522,1,1,0,81,false,stim,false,2,97.79999995231628,2,1,1,91572,WMM2,1354726,false,false,1750,image-keyboard-response,45
true,11,0,4,1,false,z,true,false,0.0-2.0-0.58-0.523-3.523,1,1,0,81,false,stim,false,1,260.5,2,1,0,91572,WMM2,1356505,false,false,1753,image-keyboard-response,46
true,11,0,4,2,false,d,true,false,0.0-2.0-0.58-0.524-3.524,1,1,0,81,false,stim,false,2,574.5999999046326,2,0,2,91572,WMM2,1358601,false,false,1756,image-keyboard-response,47
true,11,2,4,1,false,z,true,false,0.0-2.0-0.58-0.525-3.525,1,1,0,68,false,stim,false,1,501.90000009536743,2,1,0,91572,WMM2,1360620,false,false,1759,image-keyboard-response,48
true,11,1,4,2,false,d,true,false,0.0-2.0-0.58-0.526-3.526,1,1,0,90,false,stim,false,2,463.7000000476837,2,0,2,91572,WMM2,1362598,false,false,1762,image-keyboard-response,49
true,11,0,4,1,false,z,true,false,0.0-2.0-0.58-0.527-3.527,1,1,0,81,false,stim,false,1,1097.0,2,1,0,91572,WMM2,1365211,false,false,1765,image-keyboard-response,50
true,11,2,4,2,true,d,false,true,0.0-2.0-0.58-0.528-3.528,1,1,0,68,false,stim,false,2,246.5,2,0,2,91572,WMM2,1366975,false,false,1768,image-keyboard-response,51
true,11,2,4,2,true,d,false,true,0.0-2.0-0.58-0.529-3.529,1,1,0,68,false,stim,false,2,1045.5,2,1,1,91572,WMM2,1369528,false,false,1771,image-keyboard-response,52
true,11,2,4,2,true,d,false,true,0.0-2.0-0.58-0.530-3.530,1,1,0,68,false,stim,false,2,687.0999999046326,2,1,1,91572,WMM2,1371735,false,false,1774,image-keyboard-response,53
true,11,2,4,2,true,d,false,true,0.0-2.0-0.59-0.531-3.531,1,1,0,68,false,stim,false,2,780.5999999046326,2,0,2,91572,WMM2,1374024,false,false,1777,image-keyboard-response,54
true,11,2,4,2,true,d,false,true,0.0-2.0-0.59-0.532-3.532,1,1,0,68,false,stim,false,2,513.5,2,0,2,91572,WMM2,1376052,false,false,1780,image-keyboard-response,55
true,11,2,4,2,true,d,false,true,0.0-2.0-0.59-0.533-3.533,1,1,0,68,false,stim,false,2,1032.3999998569489,2,1,1,91572,WMM2,1378599,false,false,1783,image-keyboard-response,56
true,11,0,4,1,false,z,true,false,0.0-2.0-0.59-0.534-3.534,1,1,0,81,false,stim,false,1,661.0,2,1,0,91572,WMM2,1380778,false,false,1786,image-keyboard-response,57
true,11,2,4,2,true,d,false,false,0.0-2.0-0.59-0.535-3.535,1,1,0,68,false,stim,false,2,803.1000001430511,2,0,2,91572,WMM2,1383096,false,true,1789,image-keyboard-response,58
true,11,2,4,1,false,z,true,false,0.0-2.0-0.59-0.536-3.536,1,1,0,68,false,stim,false,1,436.5,2,1,0,91572,WMM2,1385049,false,false,1792,image-keyboard-response,59
true,11,2,4,2,true,d,false,false,0.0-2.0-0.59-0.537-3.537,1,1,0,68,false,stim,false,2,797.2999999523163,2,1,1,91572,WMM2,1387367,false,true,1795,image-keyboard-response,60
true,12,1,2,2,false,d,true,false,0.0-2.0-0.59-0.538-3.538,1,1,0,90,true,stim,false,2,1145.0,2,1,1,91572,WMM2,1390035,false,false,1798,image-keyboard-response,1
true,12,2,2,1,false,z,true,false,0.0-2.0-0.59-0.539-3.539,1,1,0,68,false,stim,false,1,592.3999998569489,2,1,0,91572,WMM2,1392153,false,false,1801,image-keyboard-response,2
true,12,2,2,1,false,z,false,false,0.0-2.0-0.60-0.540-3.540,1,1,0,68,false,stim,true,2,926.3000001907349,2,0,2,91572,WMM2,1394601,false,false,1804,image-keyboard-response,3
true,12,0,2,1,false,z,true,false,0.0-2.0-0.60-0.541-3.541,1,1,0,81,false,stim,false,2,623.9000000953674,2,0,2,91572,WMM2,1396738,false,false,1807,image-keyboard-response,4
true,12,0,2,1,false,z,true,false,0.0-2.0-0.60-0.542-3.542,1,1,0,81,false,stim,false,1,634.4000000953674,2,1,0,91572,WMM2,1398890,false,false,1810,image-keyboard-response,5
true,12,1,2,2,false,d,true,false,0.0-2.0-0.60-0.543-3.543,1,1,0,90,false,stim,false,2,546.1000001430511,2,1,1,91572,WMM2,1400954,false,false,1813,image-keyboard-response,6
true,12,2,2,1,false,z,true,false,0.0-2.0-0.60-0.544-3.544,1,1,0,68,false,stim,false,1,799.2000000476837,2,1,0,91572,WMM2,1403267,false,false,1816,image-keyboard-response,7
true,12,1,2,2,false,d,true,false,0.0-2.0-0.60-0.545-3.545,1,1,0,90,false,stim,false,2,414.09999990463257,2,1,1,91572,WMM2,1405200,false,false,1819,image-keyboard-response,8
true,12,2,2,1,false,z,false,true,0.0-2.0-0.60-0.546-3.546,1,1,0,68,false,stim,true,2,736.4000000953674,2,0,2,91572,WMM2,1407453,false,true,1822,image-keyboard-response,9
true,12,2,2,1,false,z,true,false,0.0-2.0-0.60-0.547-3.547,1,1,0,68,false,stim,false,1,564.5999999046326,2,1,0,91572,WMM2,1409526,false,false,1825,image-keyboard-response,10
true,12,2,2,2,true,d,false,true,0.0-2.0-0.60-0.548-3.548,1,1,0,68,false,stim,false,2,601.4000000953674,2,1,1,91572,WMM2,1411650,false,false,1828,image-keyboard-response,11
true,12,2,2,2,true,d,false,true,0.0-2.0-0.61-0.549-3.549,1,1,0,68,false,stim,false,2,524.0,2,1,1,91572,WMM2,1413688,false,false,1831,image-keyboard-response,12
true,12,2,2,1,false,z,false,false,0.0-2.0-0.61-0.550-3.550,1,1,0,68,false,stim,true,2,432.40000009536743,2,0,2,91572,WMM2,1415636,false,false,1834,image-keyboard-response,13
true,12,0,2,1,false,z,true,false,0.0-2.0-0.61-0.551-3.551,1,1,0,81,false,stim,false,1,570.3000001907349,2,1,0,91572,WMM2,1417719,false,false,1837,image-keyboard-response,14
true,12,1,2,1,true,z,false,true,0.0-2.0-0.61-0.552-3.552,1,1,0,90,false,stim,false,1,766.0,2,1,0,91572,WMM2,1420007,false,false,1840,image-keyboard-response,15
true,12,2,2,2,true,d,false,true,0.0-2.0-0.61-0.553-3.553,1,1,0,68,false,stim,false,2,642.0,2,1,1,91572,WMM2,1422174,false,false,1843,image-keyboard-response,16
true,12,1,2,1,true,z,false,true,0.0-2.0-0.61-0.554-3.554,1,1,0,90,false,stim,false,1,726.0,2,1,0,91572,WMM2,1424413,false,false,1846,image-keyboard-response,17
true,12,2,2,2,true,d,false,true,0.0-2.0-0.61-0.555-3.555,1,1,0,68,false,stim,false,2,752.7999999523163,2,1,1,91572,WMM2,1426681,false,false,1849,image-keyboard-response,18
true,12,1,2,1,true,z,false,true,0.0-2.0-0.61-0.556-3.556,1,1,0,90,false,stim,false,2,409.5,2,0,2,91572,WMM2,1428609,false,false,1852,image-keyboard-response,19
true,12,1,2,1,true,z,false,true,0.0-2.0-0.61-0.557-3.557,1,1,0,90,false,stim,false,2,494.39999985694885,2,0,2,91572,WMM2,1430627,false,false,1855,image-keyboard-response,20
true,12,1,2,2,false,d,true,false,0.0-2.0-0.62-0.558-3.558,1,1,0,90,false,stim,false,2,486.7999999523163,2,1,1,91572,WMM2,1432635,false,false,1858,image-keyboard-response,21
true,12,1,2,1,true,z,false,true,0.0-2.0-0.62-0.559-3.559,1,1,0,90,false,stim,false,2,455.2000000476837,2,0,2,91572,WMM2,1434609,false,false,1861,image-keyboard-response,22
true,12,1,2,1,true,z,false,true,0.0-2.0-0.62-0.560-3.560,1,1,0,90,false,stim,false,1,634.7000000476837,2,1,0,91572,WMM2,1436762,false,false,1864,image-keyboard-response,23
true,12,1,2,1,true,z,false,false,0.0-2.0-0.62-0.561-3.561,1,1,0,90,false,stim,false,1,477.59999990463257,2,1,0,91572,WMM2,1438754,false,true,1867,image-keyboard-response,24
true,12,1,2,1,true,z,false,true,0.0-2.0-0.62-0.562-3.562,1,1,0,90,false,stim,false,1,355.2000000476837,2,1,0,91572,WMM2,1440633,false,false,1870,image-keyboard-response,25
true,12,1,2,1,true,z,false,true,0.0-2.0-0.62-0.563-3.563,1,1,0,90,false,stim,false,2,1526.5,2,0,2,91572,WMM2,1443670,false,false,1873,image-keyboard-response,26
true,12,2,2,2,true,d,false,true,0.0-2.0-0.62-0.564-3.564,1,1,0,68,false,stim,false,2,841.2999999523163,2,1,1,91572,WMM2,1446034,false,false,1876,image-keyboard-response,27
true,12,2,2,2,true,d,false,true,0.0-2.0-0.62-0.565-3.565,1,1,0,68,false,stim,false,2,410.60000014305115,2,1,1,91572,WMM2,1447960,false,false,1879,image-keyboard-response,28
true,12,2,2,1,false,z,false,true,0.0-2.0-0.62-0.566-3.566,1,1,0,68,false,stim,true,2,392.7999999523163,2,0,2,91572,WMM2,1449873,false,true,1882,image-keyboard-response,29
true,12,1,2,1,true,z,false,true,0.0-2.0-0.63-0.567-3.567,1,1,0,90,false,stim,false,1,927.3000001907349,2,1,0,91572,WMM2,1452332,false,false,1885,image-keyboard-response,30
true,13,2,2,0,false,q,true,false,0.0-2.0-0.63-0.568-3.568,1,1,0,68,true,stim,false,1,560.2000000476837,2,0,2,91572,WMM2,1454410,false,false,1888,image-keyboard-response,1
true,13,1,2,1,true,z,false,true,0.0-2.0-0.63-0.569-3.569,1,1,0,90,false,stim,false,1,645.9000000953674,2,1,0,91572,WMM2,1456574,false,false,1891,image-keyboard-response,2
true,13,2,2,0,false,q,true,false,0.0-2.0-0.63-0.570-3.570,1,1,0,68,false,stim,false,1,587.2000000476837,2,0,2,91572,WMM2,1458671,false,false,1894,image-keyboard-response,3
true,13,2,2,2,true,d,false,true,0.0-2.0-0.63-0.571-3.571,1,1,0,68,false,stim,false,2,758.2999999523163,2,1,1,91572,WMM2,1460948,false,false,1897,image-keyboard-response,4
true,13,2,2,2,true,d,false,true,0.0-2.0-0.63-0.572-3.572,1,1,0,68,false,stim,false,2,782.9000000953674,2,1,1,91572,WMM2,1463241,false,false,1900,image-keyboard-response,5
true,13,1,2,1,true,z,false,true,0.0-2.0-0.63-0.573-3.573,1,1,0,90,false,stim,false,1,508.2999999523163,2,1,0,91572,WMM2,1465274,false,false,1903,image-keyboard-response,6
true,13,2,2,2,true,d,false,true,0.0-2.0-0.63-0.574-3.574,1,1,0,68,false,stim,false,2,755.7999999523163,2,1,1,91572,WMM2,1467549,false,false,1906,image-keyboard-response,7
true,13,1,2,0,false,q,false,false,0.0-2.0-0.63-0.575-3.575,1,1,0,90,false,stim,true,1,445.5,2,0,2,91572,WMM2,1469516,false,false,1909,image-keyboard-response,8
true,13,2,2,2,true,d,false,true,0.0-2.0-0.64-0.576-3.576,1,1,0,68,false,stim,false,2,560.4000000953674,2,1,1,91572,WMM2,1471598,false,false,1912,image-keyboard-response,9
true,13,1,2,1,true,z,false,true,0.0-2.0-0.64-0.577-3.577,1,1,0,90,false,stim,false,1,715.6000001430511,2,1,0,91572,WMM2,1473834,false,false,1915,image-keyboard-response,10
true,13,2,2,0,false,q,true,false,0.0-2.0-0.64-0.578-3.578,1,1,0,68,false,stim,false,1,642.7999999523163,2,0,2,91572,WMM2,1475990,false,false,1918,image-keyboard-response,11
true,13,1,2,1,true,z,false,true,0.0-2.0-0.64-0.579-3.579,1,1,0,90,false,stim,false,1,606.5999999046326,2,1,0,91572,WMM2,1478109,false,false,1921,image-keyboard-response,12
true,13,2,2,0,false,q,true,false,0.0-2.0-0.64-0.580-3.580,1,1,0,68,false,stim,false,1,995.4000000953674,2,0,2,91572,WMM2,1480620,false,false,1924,image-keyboard-response,13
true,13,2,2,2,true,d,false,true,0.0-2.0-0.64-0.581-3.581,1,1,0,68,false,stim,false,2,192.70000004768372,2,1,1,91572,WMM2,1482334,false,false,1927,image-keyboard-response,14
true,13,1,2,0,false,q,false,false,0.0-2.0-0.64-0.582-3.582,1,1,0,90,false,stim,true,1,510.40000009536743,2,0,2,91572,WMM2,1484363,false,false,1930,image-keyboard-response,15
true,13,2,2,1,false,z,true,false,0.0-2.0-0.64-0.583-3.583,1,1,0,68,false,stim,false,1,365.89999985694885,2,1,0,91572,WMM2,1486245,false,false,1933,image-keyboard-response,16
true,13,2,2,2,true,d,false,false,0.0-2.0-0.64-0.584-3.584,1,1,0,68,false,stim,false,2,797.5,2,1,1,91572,WMM2,1488564,false,true,1936,image-keyboard-response,17
true,13,1,2,2,false,d,true,false,0.0-2.0-0.65-0.585-3.585,1,1,0,90,false,stim,false,2,603.8999998569489,2,1,1,91572,WMM2,1490681,false,false,1939,image-keyboard-response,18
true,13,0,2,0,true,q,false,true,0.0-2.0-0.65-0.586-3.586,1,1,0,81,false,stim,false,1,646.3000001907349,2,0,2,91572,WMM2,1492839,false,false,1942,image-keyboard-response,19
true,13,0,2,0,true,q,false,true,0.0-2.0-0.65-0.587-3.587,1,1,0,81,false,stim,false,1,445.5,2,0,2,91572,WMM2,1494802,false,false,1945,image-keyboard-response,20
true,13,2,2,1,false,z,true,false,0.0-2.0-0.65-0.588-3.588,1,1,0,68,false,stim,false,1,488.40000009536743,2,1,0,91572,WMM2,1496811,false,false,1948,image-keyboard-response,21
true,13,1,2,2,false,d,true,false,0.0-2.0-0.65-0.589-3.589,1,1,0,90,false,stim,false,2,554.4000000953674,2,1,1,91572,WMM2,1498890,false,false,1951,image-keyboard-response,22
true,13,0,2,1,false,z,true,false,0.0-2.0-0.65-0.590-3.590,1,1,0,81,false,stim,false,1,1242.9000000953674,2,1,0,91572,WMM2,1501652,false,false,1954,image-keyboard-response,23
true,13,0,2,0,true,q,false,true,0.0-2.0-0.65-0.591-3.591,1,1,0,81,false,stim,false,1,1019.2999999523163,2,0,2,91572,WMM2,1504196,false,false,1957,image-keyboard-response,24
true,13,2,2,1,false,z,true,false,0.0-2.0-0.65-0.592-3.592,1,1,0,68,false,stim,false,1,635.4000000953674,2,1,0,91572,WMM2,1506355,false,false,1960,image-keyboard-response,25
true,13,0,2,2,false,d,true,true,0.0-2.0-0.65-0.593-3.593,1,1,0,81,false,stim,false,2,1308.0,2,1,1,91572,WMM2,1509181,false,true,1963,image-keyboard-response,26
true,13,0,2,0,true,q,false,true,0.0-2.0-0.66-0.594-3.594,1,1,0,81,false,stim,false,1,492.40000009536743,2,0,2,91572,WMM2,1511194,false,false,1966,image-keyboard-response,27
