answered,blockNum,choice,condition,corResp,correct,correct_response,explo,fb,internal_node_id,isStable_1,isStable_2,isStable_3,key_press,newBlock,part,persev,persevResp,rt,sessNum,stableAS,stimulus,subject,task,time_elapsed,training,trap,trial_index,trial_type,trialsInBlock
true,1,1,0,1,true,z,false,true,0.0-2.0-0.0-0.0-3.0,0,0,0,90,true,stim,false,-1,1208.3999999761581,3,0,1,96048,WMM2,90533,false,false,82,image-keyboard-response,1
true,1,1,0,1,true,z,false,true,0.0-2.0-0.0-0.1-3.1,0,0,0,90,false,stim,false,-1,618.5,3,0,1,96048,WMM2,92659,false,false,85,image-keyboard-response,2
true,1,1,0,2,false,d,true,false,0.0-2.0-0.0-0.2-3.2,0,0,0,90,false,stim,false,-1,711.6000000238419,3,0,0,96048,WMM2,94880,false,false,88,image-keyboard-response,3
true,1,1,0,2,false,d,true,false,0.0-2.0-0.0-0.3-3.3,0,0,0,90,false,stim,false,-1,422.1999999284744,3,0,0,96048,WMM2,96810,false,false,91,image-keyboard-response,4
true,1,1,0,1,true,z,false,true,0.0-2.0-0.0-0.4-3.4,0,0,0,90,false,stim,false,-1,683.6000000238419,3,0,1,96048,WMM2,99002,false,false,94,image-keyboard-response,5
true,1,2,0,2,true,d,false,false,0.0-2.0-0.0-0.5-3.5,0,0,0,68,false,stim,false,-1,614.0,3,0,0,96048,WMM2,101124,false,true,97,image-keyboard-response,6
true,1,0,0,0,true,q,false,true,0.0-2.0-0.0-0.6-3.6,0,0,0,81,false,stim,false,-1,487.60000002384186,3,0,2,96048,WMM2,103120,false,false,100,image-keyboard-response,7
true,1,0,0,0,true,q,false,true,0.0-2.0-0.0-0.7-3.7,0,0,0,81,false,stim,false,-1,471.10000002384186,3,0,2,96048,WMM2,105102,false,false,103,image-keyboard-response,8
true,1,0,0,0,true,q,false,false,0.0-2.0-0.0-0.8-3.8,0,0,0,81,false,stim,false,-1,442.0,3,0,2,96048,WMM2,107051,false,true,106,image-keyboard-response,9
true,1,1,0,1,true,z,false,true,0.0-2.0-0.1-0.9-3.9,0,0,0,90,false,stim,false,-1,461.7999999523163,3,0,1,96048,WMM2,109020,false,false,109,image-keyboard-response,10
true,1,0,0,2,false,d,true,false,0.0-2.0-0.1-0.10-3.10,0,0,0,81,false,stim,false,-1,578.7000000476837,3,0,0,96048,WMM2,111107,false,false,112,image-keyboard-response,11
true,1,1,0,1,true,z,false,true,0.0-2.0-0.1-0.11-3.11,0,0,0,90,false,stim,false,-1,742.3000000715256,3,0,1,96048,WMM2,113356,false,false,115,image-keyboard-response,12
true,1,0,0,0,true,q,false,true,0.0-2.0-0.1-0.12-3.12,0,0,0,81,false,stim,false,-1,554.1000000238419,3,0,2,96048,WMM2,115417,false,false,118,image-keyboard-response,13
true,1,1,0,1,true,z,false,true,0.0-2.0-0.1-0.13-3.13,0,0,0,90,false,stim,false,-1,582.0,3,0,1,96048,WMM2,117508,false,false,121,image-keyboard-response,14
true,1,1,0,2,false,d,true,false,0.0-2.0-0.1-0.14-3.14,0,0,0,90,false,stim,false,-1,694.6000000238419,3,0,0,96048,WMM2,119710,false,false,124,image-keyboard-response,15
true,1,0,0,0,true,q,false,true,0.0-2.0-0.1-0.15-3.15,0,0,0,81,false,stim,false,-1,456.6999999284744,3,0,2,96048,WMM2,121675,false,false,127,image-keyboard-response,16
true,1,2,0,2,true,d,false,true,0.0-2.0-0.1-0.16-3.16,0,0,0,68,false,stim,false,-1,719.5,3,0,0,96048,WMM2,123902,false,false,130,image-keyboard-response,17
true,1,0,0,0,true,q,false,true,0.0-2.0-0.1-0.17-3.17,0,0,0,81,false,stim,false,-1,470.89999997615814,3,0,2,96048,WMM2,125882,false,false,133,image-keyboard-response,18
true,1,0,0,0,true,q,false,true,0.0-2.0-0.2-0.18-3.18,0,0,0,81,false,stim,false,-1,495.3000000715256,3,0,2,96048,WMM2,127886,false,false,136,image-keyboard-response,19
true,1,0,0,0,true,q,false,true,0.0-2.0-0.2-0.19-3.19,0,0,0,81,false,stim,false,-1,493.60000002384186,3,0,2,96048,WMM2,129888,false,false,139,image-keyboard-response,20
true,1,2,0,2,true,d,false,true,0.0-2.0-0.2-0.20-3.20,0,0,0,68,false,stim,false,-1,761.2000000476837,3,0,0,96048,WMM2,132157,false,false,142,image-keyboard-response,21
true,1,1,0,1,true,z,false,true,0.0-2.0-0.2-0.21-3.21,0,0,0,90,false,stim,false,-1,640.6999999284744,3,1,1,96048,WMM2,134308,false,false,145,image-keyboard-response,22
true,1,0,0,0,true,q,false,true,0.0-2.0-0.2-0.22-3.22,0,0,0,81,false,stim,false,-1,518.2000000476837,3,1,2,96048,WMM2,136333,false,false,148,image-keyboard-response,23
true,1,1,0,1,true,z,false,true,0.0-2.0-0.2-0.23-3.23,0,0,0,90,false,stim,false,-1,554.8999999761581,3,1,1,96048,WMM2,138396,false,false,151,image-keyboard-response,24
true,1,2,0,2,true,d,false,true,0.0-2.0-0.2-0.24-3.24,0,0,0,68,false,stim,false,-1,463.89999997615814,3,0,0,96048,WMM2,140367,false,false,154,image-keyboard-response,25
true,1,2,0,2,true,d,false,true,0.0-2.0-0.2-0.25-3.25,0,0,0,68,false,stim,false,-1,626.7000000476837,3,0,0,96048,WMM2,142515,false,false,157,image-keyboard-response,26
true,1,1,0,1,true,z,false,true,0.0-2.0-0.2-0.26-3.26,0,0,0,90,false,stim,false,-1,658.1000000238419,3,1,1,96048,WMM2,144680,false,false,160,image-keyboard-response,27
true,1,0,0,0,true,q,false,true,0.0-2.0-0.3-0.27-3.27,0,0,0,81,false,stim,false,-1,615.0,3,1,2,96048,WMM2,146804,false,false,163,image-keyboard-response,28
true,1,0,0,0,true,q,false,false,0.0-2.0-0.3-0.28-3.28,0,0,0,81,false,stim,false,-1,510.60000002384186,3,1,2,96048,WMM2,148822,false,true,166,image-keyboard-response,29
true,1,2,0,2,true,d,false,true,0.0-2.0-0.3-0.29-3.29,0,0,0,68,false,stim,false,-1,623.0999999046326,3,0,0,96048,WMM2,150955,false,false,169,image-keyboard-response,30
true,1,2,0,2,true,d,false,true,0.0-2.0-0.3-0.30-3.30,0,0,0,68,false,stim,false,-1,581.1000000238419,3,0,0,96048,WMM2,153043,false,false,172,image-keyboard-response,31
true,2,0,4,0,true,q,false,true,0.0-2.0-0.3-0.31-3.31,0,1,1,81,true,stim,false,0,632.5,3,1,2,96048,WMM2,155183,false,false,175,image-keyboard-response,1
true,2,1,4,1,true,z,false,false,0.0-2.0-0.3-0.32-3.32,0,1,1,90,false,stim,false,1,453.39999997615814,3,1,1,96048,WMM2,157144,false,true,178,image-keyboard-response,2
true,2,2,4,2,true,d,false,true,0.0-2.0-0.3-0.33-3.33,0,1,1,68,false,stim,false,2,622.2999999523163,3,0,0,96048,WMM2,159274,false,false,181,image-keyboard-response,3
true,2,1,4,1,true,z,false,false,0.0-2.0-0.3-0.34-3.34,0,1,1,90,false,stim,false,1,680.8000000715256,3,1,1,96048,WMM2,161464,false,true,184,image-keyboard-response,4
true,2,1,4,1,true,z,false,true,0.0-2.0-0.3-0.35-3.35,0,1,1,90,false,stim,false,1,763.7000000476837,3,1,1,96048,WMM2,163736,false,false,187,image-keyboard-response,5
true,2,1,4,1,true,z,false,true,0.0-2.0-0.4-0.36-3.36,0,1,1,90,false,stim,false,1,726.7999999523163,3,1,1,96048,WMM2,165972,false,false,190,image-keyboard-response,6
true,2,2,4,2,true,d,false,true,0.0-2.0-0.4-0.37-3.37,0,1,1,68,false,stim,false,2,566.8999999761581,3,0,0,96048,WMM2,168047,false,false,193,image-keyboard-response,7
true,2,2,4,2,true,d,false,true,0.0-2.0-0.4-0.38-3.38,0,1,1,68,false,stim,false,2,655.7000000476837,3,0,0,96048,WMM2,170211,false,false,196,image-keyboard-response,8
true,2,2,4,2,true,d,false,true,0.0-2.0-0.4-0.39-3.39,0,1,1,68,false,stim,false,2,619.5,3,0,0,96048,WMM2,172345,false,false,199,image-keyboard-response,9
true,2,1,4,1,true,z,false,true,0.0-2.0-0.4-0.40-3.40,0,1,1,90,false,stim,false,1,639.5,3,1,1,96048,WMM2,174493,false,false,202,image-keyboard-response,10
true,2,0,4,0,true,q,false,true,0.0-2.0-0.4-0.41-3.41,0,1,1,81,false,stim,false,0,413.89999997615814,3,1,2,96048,WMM2,176416,false,false,205,image-keyboard-response,11
true,2,0,4,0,true,q,false,true,0.0-2.0-0.4-0.42-3.42,0,1,1,81,false,stim,false,0,454.2999999523163,3,1,2,96048,WMM2,178377,false,false,208,image-keyboard-response,12
true,2,1,4,1,true,z,false,true,0.0-2.0-0.4-0.43-3.43,0,1,1,90,false,stim,false,1,615.2000000476837,3,1,1,96048,WMM2,180500,false,false,211,image-keyboard-response,13
true,2,0,4,0,true,q,false,true,0.0-2.0-0.4-0.44-3.44,0,1,1,81,false,stim,false,0,655.6999999284744,3,1,2,96048,WMM2,182663,false,false,214,image-keyboard-response,14
true,2,2,4,2,true,d,false,true,0.0-2.0-0.5-0.45-3.45,0,1,1,68,false,stim,false,2,511.39999997615814,3,0,0,96048,WMM2,184682,false,false,217,image-keyboard-response,15
true,2,0,4,0,true,q,false,true,0.0-2.0-0.5-0.46-3.46,0,1,1,81,false,stim,false,0,494.10000002384186,3,1,2,96048,WMM2,186684,false,false,220,image-keyboard-response,16
true,2,1,4,1,true,z,false,true,0.0-2.0-0.5-0.47-3.47,0,1,1,90,false,stim,false,1,627.8999999761581,3,1,1,96048,WMM2,188827,false,false,223,image-keyboard-response,17
true,2,0,4,0,true,q,false,true,0.0-2.0-0.5-0.48-3.48,0,1,1,81,false,stim,false,0,567.2000000476837,3,1,2,96048,WMM2,190902,false,false,226,image-keyboard-response,18
true,2,1,4,1,true,z,false,true,0.0-2.0-0.5-0.49-3.49,0,1,1,90,false,stim,false,1,455.6999999284744,3,1,1,96048,WMM2,192868,false,false,229,image-keyboard-response,19
true,2,2,4,2,true,d,false,true,0.0-2.0-0.5-0.50-3.50,0,1,1,68,false,stim,false,2,459.60000002384186,3,0,0,96048,WMM2,194835,false,false,232,image-keyboard-response,20
true,2,1,4,1,true,z,false,true,0.0-2.0-0.5-0.51-3.51,0,1,1,90,false,stim,false,1,738.8999999761581,3,1,1,96048,WMM2,197083,false,false,235,image-keyboard-response,21
true,2,0,4,0,true,q,false,true,0.0-2.0-0.5-0.52-3.52,0,1,1,81,false,stim,false,0,477.5,3,0,2,96048,WMM2,199067,false,false,238,image-keyboard-response,22
true,2,2,4,2,true,d,false,true,0.0-2.0-0.5-0.53-3.53,0,1,1,68,false,stim,false,2,561.3000000715256,3,1,0,96048,WMM2,201137,false,false,241,image-keyboard-response,23
true,2,1,4,1,true,z,false,true,0.0-2.0-0.6-0.54-3.54,0,1,1,90,false,stim,false,1,582.8000000715256,3,1,1,96048,WMM2,203229,false,false,244,image-keyboard-response,24
true,2,0,4,0,true,q,false,false,0.0-2.0-0.6-0.55-3.55,0,1,1,81,false,stim,false,0,394.39999997615814,3,0,2,96048,WMM2,205131,false,true,247,image-keyboard-response,25
true,2,2,4,2,true,d,false,true,0.0-2.0-0.6-0.56-3.56,0,1,1,68,false,stim,false,2,692.4000000953674,3,1,0,96048,WMM2,207332,false,false,250,image-keyboard-response,26
true,2,0,4,0,true,q,false,true,0.0-2.0-0.6-0.57-3.57,0,1,1,81,false,stim,false,0,416.40000009536743,3,0,2,96048,WMM2,209256,false,false,253,image-keyboard-response,27
true,2,2,4,2,true,d,false,true,0.0-2.0-0.6-0.58-3.58,0,1,1,68,false,stim,false,2,651.2000000476837,3,1,0,96048,WMM2,211415,false,false,256,image-keyboard-response,28
true,2,0,4,0,true,q,false,true,0.0-2.0-0.6-0.59-3.59,0,1,1,81,false,stim,false,0,442.2000000476837,3,0,2,96048,WMM2,213365,false,false,259,image-keyboard-response,29
true,2,1,4,1,true,z,false,true,0.0-2.0-0.6-0.60-3.60,0,1,1,90,false,stim,false,1,456.7999999523163,3,1,1,96048,WMM2,215330,false,false,262,image-keyboard-response,30
true,3,2,3,2,true,d,false,false,0.0-2.0-0.6-0.61-3.61,1,1,0,68,true,stim,false,2,538.0,3,1,0,96048,WMM2,217376,false,true,265,image-keyboard-response,1
true,3,1,3,1,true,z,false,true,0.0-2.0-0.6-0.62-3.62,1,1,0,90,false,stim,false,1,718.0999999046326,3,1,1,96048,WMM2,219603,false,false,268,image-keyboard-response,2
true,3,1,3,1,true,z,false,true,0.0-2.0-0.7-0.63-3.63,1,1,0,90,false,stim,false,1,527.3999999761581,3,1,1,96048,WMM2,221638,false,false,271,image-keyboard-response,3
true,3,0,3,2,false,d,false,false,0.0-2.0-0.7-0.64-3.64,1,1,0,81,false,stim,true,0,449.6999999284744,3,0,2,96048,WMM2,223596,false,false,274,image-keyboard-response,4
true,3,2,3,2,true,d,false,false,0.0-2.0-0.7-0.65-3.65,1,1,0,68,false,stim,false,2,856.0,3,1,0,96048,WMM2,225960,false,true,277,image-keyboard-response,5
true,3,0,3,2,false,d,true,false,0.0-2.0-0.7-0.66-3.66,1,1,0,81,false,stim,false,2,439.60000002384186,3,1,0,96048,WMM2,227907,false,false,280,image-keyboard-response,6
true,3,1,3,1,true,z,false,true,0.0-2.0-0.7-0.67-3.67,1,1,0,90,false,stim,false,1,394.7000000476837,3,1,1,96048,WMM2,229810,false,false,283,image-keyboard-response,7
true,3,2,3,2,true,d,false,true,0.0-2.0-0.7-0.68-3.68,1,1,0,68,false,stim,false,2,1816.7000000476837,3,1,0,96048,WMM2,233135,false,false,286,image-keyboard-response,8
true,3,0,3,2,false,d,false,false,0.0-2.0-0.7-0.69-3.69,1,1,0,81,false,stim,true,0,625.5,3,0,2,96048,WMM2,235269,false,false,289,image-keyboard-response,9
true,3,1,3,1,true,z,false,true,0.0-2.0-0.7-0.70-3.70,1,1,0,90,false,stim,false,1,432.2999999523163,3,1,1,96048,WMM2,237209,false,false,292,image-keyboard-response,10
true,3,1,3,2,false,d,true,true,0.0-2.0-0.7-0.71-3.71,1,1,0,90,false,stim,false,0,380.6999999284744,3,0,2,96048,WMM2,239098,false,true,295,image-keyboard-response,11
true,3,2,3,2,true,d,false,true,0.0-2.0-0.8-0.72-3.72,1,1,0,68,false,stim,false,2,535.7000000476837,3,1,0,96048,WMM2,241142,false,false,298,image-keyboard-response,12
true,3,2,3,2,true,d,false,true,0.0-2.0-0.8-0.73-3.73,1,1,0,68,false,stim,false,2,667.6999999284744,3,1,0,96048,WMM2,243321,false,false,301,image-keyboard-response,13
true,3,1,3,2,false,d,true,false,0.0-2.0-0.8-0.74-3.74,1,1,0,90,false,stim,false,0,611.1000000238419,3,0,2,96048,WMM2,245457,false,false,304,image-keyboard-response,14
true,3,2,3,2,true,d,false,true,0.0-2.0-0.8-0.75-3.75,1,1,0,68,false,stim,false,2,635.3000000715256,3,1,0,96048,WMM2,247600,false,false,307,image-keyboard-response,15
true,3,1,3,2,false,d,true,false,0.0-2.0-0.8-0.76-3.76,1,1,0,90,false,stim,false,0,533.0,3,0,2,96048,WMM2,249641,false,false,310,image-keyboard-response,16
true,3,1,3,1,true,z,false,true,0.0-2.0-0.8-0.77-3.77,1,1,0,90,false,stim,false,1,779.2000000476837,3,1,1,96048,WMM2,251927,false,false,313,image-keyboard-response,17
true,3,1,3,1,true,z,false,true,0.0-2.0-0.8-0.78-3.78,1,1,0,90,false,stim,false,1,388.5,3,1,1,96048,WMM2,253825,false,false,316,image-keyboard-response,18
true,3,1,3,2,false,d,true,false,0.0-2.0-0.8-0.79-3.79,1,1,0,90,false,stim,false,0,535.8999999761581,3,0,2,96048,WMM2,255868,false,false,319,image-keyboard-response,19
true,3,1,3,1,true,z,false,false,0.0-2.0-0.8-0.80-3.80,1,1,0,90,false,stim,false,1,428.40000009536743,3,1,1,96048,WMM2,257805,false,true,322,image-keyboard-response,20
true,3,2,3,2,true,d,false,true,0.0-2.0-0.9-0.81-3.81,1,1,0,68,false,stim,false,0,1105.5,3,0,2,96048,WMM2,260419,false,false,325,image-keyboard-response,21
true,3,2,3,2,true,d,false,true,0.0-2.0-0.9-0.82-3.82,1,1,0,68,false,stim,false,2,1022.1999999284744,3,1,0,96048,WMM2,262954,false,false,328,image-keyboard-response,22
true,3,2,3,1,false,z,true,false,0.0-2.0-0.9-0.83-3.83,1,1,0,68,false,stim,false,1,740.9000000953674,3,1,1,96048,WMM2,265205,false,false,331,image-keyboard-response,23
true,3,2,3,2,true,d,false,true,0.0-2.0-0.9-0.84-3.84,1,1,0,68,false,stim,false,2,765.3999999761581,3,1,0,96048,WMM2,267480,false,false,334,image-keyboard-response,24
true,3,2,3,1,false,z,true,false,0.0-2.0-0.9-0.85-3.85,1,1,0,68,false,stim,false,1,388.7000000476837,3,1,1,96048,WMM2,269393,false,false,337,image-keyboard-response,25
true,3,2,3,2,true,d,false,true,0.0-2.0-0.9-0.86-3.86,1,1,0,68,false,stim,false,2,510.8000000715256,3,1,0,96048,WMM2,271416,false,false,340,image-keyboard-response,26
true,3,0,3,1,false,z,true,false,0.0-2.0-0.9-0.87-3.87,1,1,0,81,false,stim,false,1,286.8000000715256,3,1,1,96048,WMM2,273211,false,false,343,image-keyboard-response,27
true,3,0,3,2,false,d,false,false,0.0-2.0-0.9-0.88-3.88,1,1,0,81,false,stim,true,0,1566.3999999761581,3,0,2,96048,WMM2,276286,false,false,346,image-keyboard-response,28
true,3,1,3,2,false,d,true,false,0.0-2.0-0.9-0.89-3.89,1,1,0,90,false,stim,false,0,760.2999999523163,3,0,2,96048,WMM2,278556,false,false,349,image-keyboard-response,29
true,3,2,3,2,true,d,false,true,0.0-2.0-0.10-0.90-3.90,1,1,0,68,false,stim,false,2,684.0999999046326,3,1,0,96048,WMM2,280751,false,false,352,image-keyboard-response,30
true,3,1,3,2,false,d,true,false,0.0-2.0-0.10-0.91-3.91,1,1,0,90,false,stim,false,0,610.4000000953674,3,0,2,96048,WMM2,282873,false,false,355,image-keyboard-response,31
true,3,2,3,2,true,d,false,false,0.0-2.0-0.10-0.92-3.92,1,1,0,68,false,stim,false,2,775.1000000238419,3,1,0,96048,WMM2,285157,false,true,358,image-keyboard-response,32
true,3,2,3,2,true,d,false,true,0.0-2.0-0.10-0.93-3.93,1,1,0,68,false,stim,false,2,355.39999997615814,3,1,0,96048,WMM2,287023,false,false,361,image-keyboard-response,33
true,3,2,3,2,true,d,false,true,0.0-2.0-0.10-0.94-3.94,1,1,0,68,false,stim,false,0,413.60000002384186,3,0,2,96048,WMM2,288947,false,false,364,image-keyboard-response,34
true,3,2,3,1,false,z,true,true,0.0-2.0-0.10-0.95-3.95,1,1,0,68,false,stim,false,1,1069.6000000238419,3,1,1,96048,WMM2,291525,false,true,367,image-keyboard-response,35
true,3,2,3,2,true,d,false,true,0.0-2.0-0.10-0.96-3.96,1,1,0,68,false,stim,false,0,454.8000000715256,3,0,2,96048,WMM2,293490,false,false,370,image-keyboard-response,36
true,3,2,3,1,false,z,true,false,0.0-2.0-0.10-0.97-3.97,1,1,0,68,false,stim,false,1,461.0,3,1,1,96048,WMM2,295460,false,false,373,image-keyboard-response,37
true,3,2,3,1,false,z,true,false,0.0-2.0-0.10-0.98-3.98,1,1,0,68,false,stim,false,1,824.5999999046326,3,1,1,96048,WMM2,297797,false,false,376,image-keyboard-response,38
true,3,0,3,1,false,z,true,false,0.0-2.0-0.11-0.99-3.99,1,1,0,81,false,stim,false,1,393.89999997615814,3,1,1,96048,WMM2,299709,false,false,379,image-keyboard-response,39
true,3,2,3,2,true,d,false,true,0.0-2.0-0.11-0.100-3.100,1,1,0,68,false,stim,false,2,649.9000000953674,3,1,0,96048,WMM2,301869,false,false,382,image-keyboard-response,40
true,3,2,3,2,true,d,false,true,0.0-2.0-0.11-0.101-3.101,1,1,0,68,false,stim,false,0,962.1000000238419,3,0,2,96048,WMM2,304341,false,false,385,image-keyboard-response,41
true,3,2,3,2,true,d,false,true,0.0-2.0-0.11-0.102-3.102,1,1,0,68,false,stim,false,0,486.7999999523163,3,0,2,96048,WMM2,306336,false,false,388,image-keyboard-response,42
true,3,2,3,2,true,d,false,true,0.0-2.0-0.11-0.103-3.103,1,1,0,68,false,stim,false,2,598.1000000238419,3,1,0,96048,WMM2,308442,false,false,391,image-keyboard-response,43
true,3,2,3,2,true,d,false,true,0.0-2.0-0.11-0.104-3.104,1,1,0,68,false,stim,false,0,486.89999997615814,3,0,2,96048,WMM2,310438,false,false,394,image-keyboard-response,44
true,3,1,3,1,true,z,false,true,0.0-2.0-0.11-0.105-3.105,1,1,0,90,false,stim,false,1,395.39999997615814,3,1,1,96048,WMM2,312343,false,false,397,image-keyboard-response,45
true,3,2,3,2,true,d,false,true,0.0-2.0-0.11-0.106-3.106,1,1,0,68,false,stim,false,2,527.2000000476837,3,1,0,96048,WMM2,314381,false,false,400,image-keyboard-response,46
true,3,1,3,1,true,z,false,true,0.0-2.0-0.11-0.107-3.107,1,1,0,90,false,stim,false,1,426.89999997615814,3,1,1,96048,WMM2,316320,false,false,403,image-keyboard-response,47
true,3,2,3,2,true,d,false,true,0.0-2.0-0.12-0.108-3.108,1,1,0,68,false,stim,false,0,604.7999999523163,3,1,2,96048,WMM2,318436,false,false,406,image-keyboard-response,48
true,3,2,3,2,true,d,false,false,0.0-2.0-0.12-0.109-3.109,1,1,0,68,false,stim,false,2,621.8999999761581,3,0,0,96048,WMM2,320565,false,true,409,image-keyboard-response,49
true,3,2,3,2,true,d,false,false,0.0-2.0-0.12-0.110-3.110,1,1,0,68,false,stim,false,0,1007.6000000238419,3,1,2,96048,WMM2,323081,false,true,412,image-keyboard-response,50
true,3,1,3,1,true,z,false,true,0.0-2.0-0.12-0.111-3.111,1,1,0,90,false,stim,false,1,453.7999999523163,3,1,1,96048,WMM2,325045,false,false,415,image-keyboard-response,51
true,3,2,3,2,true,d,false,true,0.0-2.0-0.12-0.112-3.112,1,1,0,68,false,stim,false,0,728.2999999523163,3,1,2,96048,WMM2,327281,false,false,418,image-keyboard-response,52
true,3,2,3,2,true,d,false,false,0.0-2.0-0.12-0.113-3.113,1,1,0,68,false,stim,false,2,621.1000000238419,3,0,0,96048,WMM2,329410,false,true,421,image-keyboard-response,53
true,3,1,3,1,true,z,false,true,0.0-2.0-0.12-0.114-3.114,1,1,0,90,false,stim,false,1,342.89999997615814,3,1,1,96048,WMM2,331261,false,false,424,image-keyboard-response,54
true,3,1,3,1,true,z,false,true,0.0-2.0-0.12-0.115-3.115,1,1,0,90,false,stim,false,1,761.3999999761581,3,1,1,96048,WMM2,333531,false,false,427,image-keyboard-response,55
true,3,0,3,2,false,d,true,false,0.0-2.0-0.12-0.116-3.116,1,1,0,81,false,stim,false,2,353.60000002384186,3,0,0,96048,WMM2,335394,false,false,430,image-keyboard-response,56
true,3,2,3,2,true,d,false,true,0.0-2.0-0.13-0.117-3.117,1,1,0,68,false,stim,false,0,912.5,3,1,2,96048,WMM2,337814,false,false,433,image-keyboard-response,57
true,4,2,2,1,false,z,false,false,0.0-2.0-0.13-0.118-3.118,0,1,1,68,true,stim,true,2,730.0999999046326,3,0,0,96048,WMM2,340053,false,false,436,image-keyboard-response,1
true,4,1,2,1,true,z,false,true,0.0-2.0-0.13-0.119-3.119,0,1,1,90,false,stim,false,1,453.3000000715256,3,1,1,96048,WMM2,342014,false,false,439,image-keyboard-response,2
true,4,1,2,1,true,z,false,true,0.0-2.0-0.13-0.120-3.120,0,1,1,90,false,stim,false,2,439.5,3,0,0,96048,WMM2,343963,false,false,442,image-keyboard-response,3
true,4,1,2,1,true,z,false,false,0.0-2.0-0.13-0.121-3.121,0,1,1,90,false,stim,false,1,774.5,3,1,1,96048,WMM2,346246,false,true,445,image-keyboard-response,4
true,4,1,2,1,true,z,false,true,0.0-2.0-0.13-0.122-3.122,0,1,1,90,false,stim,false,1,688.5,3,1,1,96048,WMM2,348443,false,false,448,image-keyboard-response,5
true,4,2,2,2,true,d,false,true,0.0-2.0-0.13-0.123-3.123,0,1,1,68,false,stim,false,2,689.2000000476837,3,1,2,96048,WMM2,350639,false,false,451,image-keyboard-response,6
true,4,2,2,2,true,d,false,true,0.0-2.0-0.13-0.124-3.124,0,1,1,68,false,stim,false,2,711.8000000715256,3,1,2,96048,WMM2,352859,false,false,454,image-keyboard-response,7
true,4,1,2,1,true,z,false,true,0.0-2.0-0.13-0.125-3.125,0,1,1,90,false,stim,false,2,669.6999999284744,3,0,0,96048,WMM2,355035,false,false,457,image-keyboard-response,8
true,4,1,2,1,true,z,false,true,0.0-2.0-0.14-0.126-3.126,0,1,1,90,false,stim,false,1,516.4000000953674,3,1,1,96048,WMM2,357061,false,false,460,image-keyboard-response,9
true,4,2,2,2,true,d,false,false,0.0-2.0-0.14-0.127-3.127,0,1,1,68,false,stim,false,2,681.5,3,1,2,96048,WMM2,359251,false,true,463,image-keyboard-response,10
true,4,1,2,1,true,z,false,true,0.0-2.0-0.14-0.128-3.128,0,1,1,90,false,stim,false,2,508.1999999284744,3,0,0,96048,WMM2,361278,false,false,466,image-keyboard-response,11
true,4,1,2,1,true,z,false,true,0.0-2.0-0.14-0.129-3.129,0,1,1,90,false,stim,false,1,718.0,3,1,1,96048,WMM2,363504,false,false,469,image-keyboard-response,12
true,4,1,2,1,true,z,false,true,0.0-2.0-0.14-0.130-3.130,0,1,1,90,false,stim,false,2,581.0999999046326,3,0,0,96048,WMM2,365606,false,false,472,image-keyboard-response,13
true,4,2,2,2,true,d,false,true,0.0-2.0-0.14-0.131-3.131,0,1,1,68,false,stim,false,2,720.8000000715256,3,1,2,96048,WMM2,367835,false,false,475,image-keyboard-response,14
true,4,2,2,2,true,d,false,true,0.0-2.0-0.14-0.132-3.132,0,1,1,68,false,stim,false,2,577.0,3,1,2,96048,WMM2,369920,false,false,478,image-keyboard-response,15
true,4,1,2,1,true,z,false,true,0.0-2.0-0.14-0.133-3.133,0,1,1,90,false,stim,false,2,470.5,3,0,0,96048,WMM2,371900,false,false,481,image-keyboard-response,16
true,4,1,2,1,true,z,false,true,0.0-2.0-0.14-0.134-3.134,0,1,1,90,false,stim,false,1,853.5,3,1,1,96048,WMM2,374263,false,false,484,image-keyboard-response,17
true,4,2,2,2,true,d,false,true,0.0-2.0-0.15-0.135-3.135,0,1,1,68,false,stim,false,2,1227.0,3,1,2,96048,WMM2,376999,false,false,487,image-keyboard-response,18
true,4,1,2,1,true,z,false,true,0.0-2.0-0.15-0.136-3.136,0,1,1,90,false,stim,false,1,554.3999999761581,3,1,1,96048,WMM2,379061,false,false,490,image-keyboard-response,19
true,4,2,2,2,true,d,false,true,0.0-2.0-0.15-0.137-3.137,0,1,1,68,false,stim,false,2,908.1000000238419,3,1,2,96048,WMM2,381480,false,false,493,image-keyboard-response,20
true,4,1,2,1,true,z,false,true,0.0-2.0-0.15-0.138-3.138,0,1,1,90,false,stim,false,2,541.8999999761581,3,0,0,96048,WMM2,383532,false,false,496,image-keyboard-response,21
true,4,1,2,1,true,z,false,true,0.0-2.0-0.15-0.139-3.139,0,1,1,90,false,stim,false,1,560.6000000238419,3,1,1,96048,WMM2,385601,false,false,499,image-keyboard-response,22
true,4,1,2,1,true,z,false,true,0.0-2.0-0.15-0.140-3.140,0,1,1,90,false,stim,false,1,710.7999999523163,3,1,1,96048,WMM2,387837,false,false,502,image-keyboard-response,23
true,4,1,2,1,true,z,false,true,0.0-2.0-0.15-0.141-3.141,0,1,1,90,false,stim,false,2,507.89999997615814,3,0,0,96048,WMM2,389853,false,false,505,image-keyboard-response,24
true,4,1,2,1,true,z,false,true,0.0-2.0-0.15-0.142-3.142,0,1,1,90,false,stim,false,2,489.39999997615814,3,0,0,96048,WMM2,391852,false,false,508,image-keyboard-response,25
true,4,2,2,2,true,d,false,true,0.0-2.0-0.15-0.143-3.143,0,1,1,68,false,stim,false,2,599.7000000476837,3,0,2,96048,WMM2,393958,false,false,511,image-keyboard-response,26
true,4,2,2,2,true,d,false,true,0.0-2.0-0.16-0.144-3.144,0,1,1,68,false,stim,false,2,714.8000000715256,3,0,2,96048,WMM2,396181,false,false,514,image-keyboard-response,27
true,4,1,2,1,true,z,false,true,0.0-2.0-0.16-0.145-3.145,0,1,1,90,false,stim,false,1,530.2999999523163,3,1,1,96048,WMM2,398229,false,false,517,image-keyboard-response,28
true,4,1,2,1,true,z,false,true,0.0-2.0-0.16-0.146-3.146,0,1,1,90,false,stim,false,1,473.0,3,1,1,96048,WMM2,400211,false,false,520,image-keyboard-response,29
true,4,1,2,1,true,z,false,true,0.0-2.0-0.16-0.147-3.147,0,1,1,90,false,stim,false,1,440.3000000715256,3,1,1,96048,WMM2,402160,false,false,523,image-keyboard-response,30
true,5,2,1,1,false,z,false,false,0.0-2.0-0.16-0.148-3.148,0,1,0,68,true,stim,true,2,604.1999999284744,3,0,2,96048,WMM2,404273,false,false,526,image-keyboard-response,1
true,5,1,1,0,false,q,false,false,0.0-2.0-0.16-0.149-3.149,0,1,0,90,false,stim,true,1,598.3999999761581,3,0,0,96048,WMM2,406380,false,false,529,image-keyboard-response,2
true,5,1,1,0,false,q,false,false,0.0-2.0-0.16-0.150-3.150,0,1,0,90,false,stim,true,1,1083.2000000476837,3,0,0,96048,WMM2,408982,false,false,532,image-keyboard-response,3
true,5,1,1,0,false,q,false,false,0.0-2.0-0.16-0.151-3.151,0,1,0,90,false,stim,true,1,945.3000000715256,3,0,0,96048,WMM2,411435,false,false,535,image-keyboard-response,4
true,5,0,1,1,false,z,true,false,0.0-2.0-0.16-0.152-3.152,0,1,0,81,false,stim,false,2,1392.6999999284744,3,0,2,96048,WMM2,414335,false,false,538,image-keyboard-response,5
true,5,2,1,1,false,z,false,false,0.0-2.0-0.17-0.153-3.153,0,1,0,68,false,stim,true,2,475.2000000476837,3,0,2,96048,WMM2,416321,false,false,541,image-keyboard-response,6
true,5,0,1,0,true,q,false,true,0.0-2.0-0.17-0.154-3.154,0,1,0,81,false,stim,false,1,811.2000000476837,3,0,0,96048,WMM2,418641,false,false,544,image-keyboard-response,7
true,5,0,1,0,true,q,false,true,0.0-2.0-0.17-0.155-3.155,0,1,0,81,false,stim,false,1,554.6999999284744,3,0,0,96048,WMM2,420702,false,false,547,image-keyboard-response,8
true,5,1,1,1,true,z,false,true,0.0-2.0-0.17-0.156-3.156,0,1,0,90,false,stim,false,1,1068.2000000476837,3,1,1,96048,WMM2,423279,false,false,550,image-keyboard-response,9
true,5,1,1,1,true,z,false,true,0.0-2.0-0.17-0.157-3.157,0,1,0,90,false,stim,false,2,1234.7999999523163,3,0,2,96048,WMM2,426022,false,false,553,image-keyboard-response,10
true,5,1,1,1,true,z,false,true,0.0-2.0-0.17-0.158-3.158,0,1,0,90,false,stim,false,1,661.8999999761581,3,1,1,96048,WMM2,428194,false,false,556,image-keyboard-response,11
true,5,0,1,0,true,q,false,true,0.0-2.0-0.17-0.159-3.159,0,1,0,81,false,stim,false,1,529.5,3,0,0,96048,WMM2,430233,false,false,559,image-keyboard-response,12
true,5,1,1,1,true,z,false,false,0.0-2.0-0.17-0.160-3.160,0,1,0,90,false,stim,false,1,522.9000000953674,3,1,1,96048,WMM2,432265,false,true,562,image-keyboard-response,13
true,5,1,1,1,true,z,false,true,0.0-2.0-0.17-0.161-3.161,0,1,0,90,false,stim,false,2,859.8999999761581,3,0,2,96048,WMM2,434636,false,false,565,image-keyboard-response,14
true,5,0,1,0,true,q,false,true,0.0-2.0-0.18-0.162-3.162,0,1,0,81,false,stim,false,1,463.60000002384186,3,0,0,96048,WMM2,436608,false,false,568,image-keyboard-response,15
true,5,1,1,1,true,z,false,true,0.0-2.0-0.18-0.163-3.163,0,1,0,90,false,stim,false,2,649.1000000238419,3,0,2,96048,WMM2,438765,false,false,571,image-keyboard-response,16
true,5,1,1,1,true,z,false,true,0.0-2.0-0.18-0.164-3.164,0,1,0,90,false,stim,false,1,501.40000009536743,3,1,1,96048,WMM2,440776,false,false,574,image-keyboard-response,17
true,5,1,1,1,true,z,false,true,0.0-2.0-0.18-0.165-3.165,0,1,0,90,false,stim,false,2,713.1000000238419,3,0,2,96048,WMM2,442997,false,false,577,image-keyboard-response,18
true,5,0,1,0,true,q,false,true,0.0-2.0-0.18-0.166-3.166,0,1,0,81,false,stim,false,1,372.7999999523163,3,0,0,96048,WMM2,444879,false,false,580,image-keyboard-response,19
true,5,1,1,1,true,z,false,true,0.0-2.0-0.18-0.167-3.167,0,1,0,90,false,stim,false,2,677.7999999523163,3,0,2,96048,WMM2,447065,false,false,583,image-keyboard-response,20
true,5,1,1,1,true,z,false,true,0.0-2.0-0.18-0.168-3.168,0,1,0,90,false,stim,false,1,626.7000000476837,3,1,1,96048,WMM2,449211,false,false,586,image-keyboard-response,21
true,5,1,1,1,true,z,false,true,0.0-2.0-0.18-0.169-3.169,0,1,0,90,false,stim,false,1,828.7000000476837,3,1,1,96048,WMM2,451552,false,false,589,image-keyboard-response,22
true,5,0,1,0,true,q,false,true,0.0-2.0-0.18-0.170-3.170,0,1,0,81,false,stim,false,1,431.7999999523163,3,1,0,96048,WMM2,453491,false,false,592,image-keyboard-response,23
true,5,1,1,1,true,z,false,true,0.0-2.0-0.19-0.171-3.171,0,1,0,90,false,stim,false,1,552.2000000476837,3,1,1,96048,WMM2,455553,false,false,595,image-keyboard-response,24
true,5,1,1,1,true,z,false,true,0.0-2.0-0.19-0.172-3.172,0,1,0,90,false,stim,false,2,616.6999999284744,3,0,2,96048,WMM2,457679,false,false,598,image-keyboard-response,25
true,5,1,1,1,true,z,false,true,0.0-2.0-0.19-0.173-3.173,0,1,0,90,false,stim,false,2,728.1000000238419,3,0,2,96048,WMM2,459921,false,false,601,image-keyboard-response,26
true,5,0,1,0,true,q,false,true,0.0-2.0-0.19-0.174-3.174,0,1,0,81,false,stim,false,1,629.8999999761581,3,1,0,96048,WMM2,462059,false,false,604,image-keyboard-response,27
true,5,0,1,0,true,q,false,true,0.0-2.0-0.19-0.175-3.175,0,1,0,81,false,stim,false,1,517.1999999284744,3,1,0,96048,WMM2,464084,false,false,607,image-keyboard-response,28
true,5,1,1,1,true,z,false,false,0.0-2.0-0.19-0.176-3.176,0,1,0,90,false,stim,false,1,529.8000000715256,3,1,1,96048,WMM2,466123,false,true,610,image-keyboard-response,29
true,5,1,1,1,true,z,false,true,0.0-2.0-0.19-0.177-3.177,0,1,0,90,false,stim,false,2,463.6999999284744,3,0,2,96048,WMM2,468095,false,false,613,image-keyboard-response,30
true,6,1,2,1,true,z,false,true,0.0-2.0-0.19-0.178-3.178,1,1,0,90,true,stim,false,1,694.5,3,1,1,96048,WMM2,470298,false,false,616,image-keyboard-response,1
true,6,0,2,0,true,q,false,true,0.0-2.0-0.19-0.179-3.179,1,1,0,81,false,stim,false,0,515.5999999046326,3,1,0,96048,WMM2,472323,false,false,619,image-keyboard-response,2
true,6,1,2,1,true,z,false,true,0.0-2.0-0.20-0.180-3.180,1,1,0,90,false,stim,false,1,691.1000000238419,3,1,1,96048,WMM2,474526,false,false,622,image-keyboard-response,3
true,6,1,2,2,false,d,false,false,0.0-2.0-0.20-0.181-3.181,1,1,0,90,false,stim,true,1,632.6999999284744,3,0,2,96048,WMM2,476667,false,false,625,image-keyboard-response,4
true,6,0,2,0,true,q,false,true,0.0-2.0-0.20-0.182-3.182,1,1,0,81,false,stim,false,0,443.39999997615814,3,1,0,96048,WMM2,478620,false,false,628,image-keyboard-response,5
true,6,1,2,1,true,z,false,true,0.0-2.0-0.20-0.183-3.183,1,1,0,90,false,stim,false,1,644.3999999761581,3,1,1,96048,WMM2,480773,false,false,631,image-keyboard-response,6
true,6,2,2,2,true,d,false,true,0.0-2.0-0.20-0.184-3.184,1,1,0,68,false,stim,false,1,357.89999997615814,3,0,2,96048,WMM2,482640,false,false,634,image-keyboard-response,7
true,6,0,2,0,true,q,false,true,0.0-2.0-0.20-0.185-3.185,1,1,0,81,false,stim,false,0,487.6999999284744,3,1,0,96048,WMM2,484651,false,false,637,image-keyboard-response,8
true,6,2,2,2,true,d,false,true,0.0-2.0-0.20-0.186-3.186,1,1,0,68,false,stim,false,1,602.0,3,0,2,96048,WMM2,486772,false,false,640,image-keyboard-response,9
true,6,0,2,0,true,q,false,true,0.0-2.0-0.20-0.187-3.187,1,1,0,81,false,stim,false,0,566.6000000238419,3,1,0,96048,WMM2,488847,false,false,643,image-keyboard-response,10
true,6,1,2,1,true,z,false,true,0.0-2.0-0.20-0.188-3.188,1,1,0,90,false,stim,false,1,466.39999997615814,3,1,1,96048,WMM2,490822,false,false,646,image-keyboard-response,11
true,6,0,2,0,true,q,false,true,0.0-2.0-0.21-0.189-3.189,1,1,0,81,false,stim,false,0,458.40000009536743,3,1,0,96048,WMM2,492792,false,false,649,image-keyboard-response,12
true,6,2,2,2,true,d,false,true,0.0-2.0-0.21-0.190-3.190,1,1,0,68,false,stim,false,1,387.1999999284744,3,0,2,96048,WMM2,494687,false,false,652,image-keyboard-response,13
true,6,0,2,0,true,q,false,true,0.0-2.0-0.21-0.191-3.191,1,1,0,81,false,stim,false,0,393.5,3,1,0,96048,WMM2,496590,false,false,655,image-keyboard-response,14
true,6,1,2,1,true,z,false,false,0.0-2.0-0.21-0.192-3.192,1,1,0,90,false,stim,false,1,367.0,3,1,1,96048,WMM2,498465,false,true,658,image-keyboard-response,15
true,6,0,2,0,true,q,false,true,0.0-2.0-0.21-0.193-3.193,1,1,0,81,false,stim,false,0,475.40000009536743,3,1,0,96048,WMM2,500451,false,false,661,image-keyboard-response,16
true,6,1,2,1,true,z,false,true,0.0-2.0-0.21-0.194-3.194,1,1,0,90,false,stim,false,1,367.2999999523163,3,1,1,96048,WMM2,502335,false,false,664,image-keyboard-response,17
true,6,1,2,1,true,z,false,true,0.0-2.0-0.21-0.195-3.195,1,1,0,90,false,stim,false,1,613.0,3,1,1,96048,WMM2,504458,false,false,667,image-keyboard-response,18
true,6,2,2,2,true,d,false,true,0.0-2.0-0.21-0.196-3.196,1,1,0,68,false,stim,false,1,397.0,3,0,2,96048,WMM2,506365,false,false,670,image-keyboard-response,19
true,6,2,2,2,true,d,false,true,0.0-2.0-0.21-0.197-3.197,1,1,0,68,false,stim,false,1,571.1999999284744,3,0,2,96048,WMM2,508445,false,false,673,image-keyboard-response,20
true,6,0,2,0,true,q,false,true,0.0-2.0-0.22-0.198-3.198,1,1,0,81,false,stim,false,0,408.10000002384186,3,0,0,96048,WMM2,510364,false,false,676,image-keyboard-response,21
true,6,1,2,1,true,z,false,true,0.0-2.0-0.22-0.199-3.199,1,1,0,90,false,stim,false,1,647.8000000715256,3,1,1,96048,WMM2,512521,false,false,679,image-keyboard-response,22
true,6,0,2,0,true,q,false,true,0.0-2.0-0.22-0.200-3.200,1,1,0,81,false,stim,false,0,523.5,3,0,0,96048,WMM2,514560,false,false,682,image-keyboard-response,23
true,6,0,2,0,true,q,false,true,0.0-2.0-0.22-0.201-3.201,1,1,0,81,false,stim,false,0,405.2000000476837,3,0,0,96048,WMM2,516476,false,false,685,image-keyboard-response,24
true,6,2,2,2,true,d,false,true,0.0-2.0-0.22-0.202-3.202,1,1,0,68,false,stim,false,1,558.3999999761581,3,1,2,96048,WMM2,518543,false,false,688,image-keyboard-response,25
true,6,1,2,1,true,z,false,true,0.0-2.0-0.22-0.203-3.203,1,1,0,90,false,stim,false,1,591.2999999523163,3,1,1,96048,WMM2,520643,false,false,691,image-keyboard-response,26
true,6,2,2,2,true,d,false,true,0.0-2.0-0.22-0.204-3.204,1,1,0,68,false,stim,false,1,629.2000000476837,3,1,2,96048,WMM2,522780,false,false,694,image-keyboard-response,27
true,6,2,2,2,true,d,false,true,0.0-2.0-0.22-0.205-3.205,1,1,0,68,false,stim,false,1,507.60000002384186,3,1,2,96048,WMM2,524796,false,false,697,image-keyboard-response,28
true,6,1,2,1,true,z,false,true,0.0-2.0-0.22-0.206-3.206,1,1,0,90,false,stim,false,1,609.6000000238419,3,1,1,96048,WMM2,526915,false,false,700,image-keyboard-response,29
true,6,0,2,0,true,q,false,true,0.0-2.0-0.23-0.207-3.207,1,1,0,81,false,stim,false,0,420.90000009536743,3,0,0,96048,WMM2,528853,false,false,703,image-keyboard-response,30
true,7,1,4,1,true,z,false,true,0.0-2.0-0.23-0.208-3.208,0,1,1,90,true,stim,false,1,579.8999999761581,3,1,1,96048,WMM2,530942,false,false,706,image-keyboard-response,1
true,7,2,4,2,true,d,false,true,0.0-2.0-0.23-0.209-3.209,0,1,1,68,false,stim,false,2,411.39999997615814,3,1,2,96048,WMM2,532867,false,false,709,image-keyboard-response,2
true,7,0,4,0,true,q,false,true,0.0-2.0-0.23-0.210-3.210,0,1,1,81,false,stim,false,0,371.7000000476837,3,0,0,96048,WMM2,534748,false,false,712,image-keyboard-response,3
true,7,1,4,1,true,z,false,true,0.0-2.0-0.23-0.211-3.211,0,1,1,90,false,stim,false,1,563.0999999046326,3,1,1,96048,WMM2,536820,false,false,715,image-keyboard-response,4
true,7,1,4,1,true,z,false,false,0.0-2.0-0.23-0.212-3.212,0,1,1,90,false,stim,false,1,636.7999999523163,3,1,1,96048,WMM2,538979,false,true,718,image-keyboard-response,5
true,7,0,4,0,true,q,false,true,0.0-2.0-0.23-0.213-3.213,0,1,1,81,false,stim,false,0,626.8999999761581,3,0,0,96048,WMM2,541114,false,false,721,image-keyboard-response,6
true,7,2,4,2,true,d,false,true,0.0-2.0-0.23-0.214-3.214,0,1,1,68,false,stim,false,2,530.1000000238419,3,1,2,96048,WMM2,543154,false,false,724,image-keyboard-response,7
true,7,2,4,2,true,d,false,true,0.0-2.0-0.23-0.215-3.215,0,1,1,68,false,stim,false,2,557.2999999523163,3,1,2,96048,WMM2,545220,false,false,727,image-keyboard-response,8
true,7,0,4,0,true,q,false,true,0.0-2.0-0.24-0.216-3.216,0,1,1,81,false,stim,false,0,467.2000000476837,3,0,0,96048,WMM2,547196,false,false,730,image-keyboard-response,9
true,7,2,4,2,true,d,false,true,0.0-2.0-0.24-0.217-3.217,0,1,1,68,false,stim,false,2,605.2999999523163,3,1,2,96048,WMM2,549311,false,false,733,image-keyboard-response,10
true,7,1,4,1,true,z,false,false,0.0-2.0-0.24-0.218-3.218,0,1,1,90,false,stim,false,1,810.8999999761581,3,1,1,96048,WMM2,551631,false,true,736,image-keyboard-response,11
true,7,2,4,2,true,d,false,true,0.0-2.0-0.24-0.219-3.219,0,1,1,68,false,stim,false,2,721.2999999523163,3,1,2,96048,WMM2,553876,false,false,739,image-keyboard-response,12
true,7,0,4,0,true,q,false,false,0.0-2.0-0.24-0.220-3.220,0,1,1,81,false,stim,false,0,653.1000000238419,3,0,0,96048,WMM2,556039,false,true,742,image-keyboard-response,13
true,7,0,4,0,true,q,false,true,0.0-2.0-0.24-0.221-3.221,0,1,1,81,false,stim,false,0,616.0,3,0,0,96048,WMM2,558163,false,false,745,image-keyboard-response,14
true,7,2,4,2,true,d,false,true,0.0-2.0-0.24-0.222-3.222,0,1,1,68,false,stim,false,2,743.1000000238419,3,1,2,96048,WMM2,560416,false,false,748,image-keyboard-response,15
true,7,2,4,1,false,z,true,false,0.0-2.0-0.24-0.223-3.223,0,1,1,68,false,stim,false,1,394.89999997615814,3,1,1,96048,WMM2,562320,false,false,751,image-keyboard-response,16
true,7,2,4,1,false,z,true,true,0.0-2.0-0.24-0.224-3.224,0,1,1,68,false,stim,false,1,549.5,3,1,1,96048,WMM2,564379,false,true,754,image-keyboard-response,17
true,7,2,4,2,true,d,false,true,0.0-2.0-0.25-0.225-3.225,0,1,1,68,false,stim,false,2,804.7000000476837,3,1,2,96048,WMM2,566693,false,false,757,image-keyboard-response,18
true,7,2,4,1,false,z,true,false,0.0-2.0-0.25-0.226-3.226,0,1,1,68,false,stim,false,1,635.0,3,1,1,96048,WMM2,568837,false,false,760,image-keyboard-response,19
true,7,2,4,1,false,z,true,false,0.0-2.0-0.25-0.227-3.227,0,1,1,68,false,stim,false,1,398.2000000476837,3,1,1,96048,WMM2,570754,false,false,763,image-keyboard-response,20
true,7,2,4,2,true,d,false,true,0.0-2.0-0.25-0.228-3.228,0,1,1,68,false,stim,false,2,718.3999999761581,3,1,2,96048,WMM2,572984,false,false,766,image-keyboard-response,21
true,7,2,4,1,false,z,true,false,0.0-2.0-0.25-0.229-3.229,0,1,1,68,false,stim,false,1,434.0,3,1,1,96048,WMM2,574930,false,false,769,image-keyboard-response,22
true,7,0,4,0,true,q,false,true,0.0-2.0-0.25-0.230-3.230,0,1,1,81,false,stim,false,0,516.3000000715256,3,0,0,96048,WMM2,576957,false,false,772,image-keyboard-response,23
true,7,2,4,2,true,d,false,true,0.0-2.0-0.25-0.231-3.231,0,1,1,68,false,stim,false,2,660.0999999046326,3,1,2,96048,WMM2,579128,false,false,775,image-keyboard-response,24
true,7,0,4,0,true,q,false,true,0.0-2.0-0.25-0.232-3.232,0,1,1,81,false,stim,false,0,554.1000000238419,3,0,0,96048,WMM2,581208,false,false,778,image-keyboard-response,25
true,7,0,4,0,true,q,false,true,0.0-2.0-0.25-0.233-3.233,0,1,1,81,false,stim,false,0,420.0,3,0,0,96048,WMM2,583140,false,false,781,image-keyboard-response,26
true,7,2,4,2,true,d,false,true,0.0-2.0-0.26-0.234-3.234,0,1,1,68,false,stim,false,2,588.6000000238419,3,1,2,96048,WMM2,585239,false,false,784,image-keyboard-response,27
true,7,2,4,2,true,d,false,true,0.0-2.0-0.26-0.235-3.235,0,1,1,68,false,stim,false,2,737.9000000953674,3,1,2,96048,WMM2,587490,false,false,787,image-keyboard-response,28
true,7,2,4,2,true,d,false,true,0.0-2.0-0.26-0.236-3.236,0,1,1,68,false,stim,false,2,538.6000000238419,3,1,2,96048,WMM2,589540,false,false,790,image-keyboard-response,29
true,7,0,4,0,true,q,false,true,0.0-2.0-0.26-0.237-3.237,0,1,1,81,false,stim,false,0,513.6000000238419,3,0,0,96048,WMM2,591567,false,false,793,image-keyboard-response,30
true,7,0,4,0,true,q,false,false,0.0-2.0-0.26-0.238-3.238,0,1,1,81,false,stim,false,0,452.0,3,0,0,96048,WMM2,593532,false,true,796,image-keyboard-response,31
true,7,1,4,1,true,z,false,true,0.0-2.0-0.26-0.239-3.239,0,1,1,90,false,stim,false,1,667.9000000953674,3,1,1,96048,WMM2,595711,false,false,799,image-keyboard-response,32
true,7,1,4,1,true,z,false,false,0.0-2.0-0.26-0.240-3.240,0,1,1,90,false,stim,false,1,590.7999999523163,3,1,1,96048,WMM2,597826,false,true,802,image-keyboard-response,33
true,7,0,4,0,true,q,false,true,0.0-2.0-0.26-0.241-3.241,0,1,1,81,false,stim,false,0,572.5999999046326,3,1,0,96048,WMM2,599909,false,false,805,image-keyboard-response,34
true,7,1,4,1,true,z,false,true,0.0-2.0-0.26-0.242-3.242,0,1,1,90,false,stim,false,1,360.89999997615814,3,1,1,96048,WMM2,601781,false,false,808,image-keyboard-response,35
true,7,0,4,0,true,q,false,true,0.0-2.0-0.27-0.243-3.243,0,1,1,81,false,stim,false,0,551.8000000715256,3,1,0,96048,WMM2,603844,false,false,811,image-keyboard-response,36
true,7,1,4,1,true,z,false,false,0.0-2.0-0.27-0.244-3.244,0,1,1,90,false,stim,false,1,491.39999997615814,3,1,1,96048,WMM2,605845,false,true,814,image-keyboard-response,37
true,7,0,4,0,true,q,false,true,0.0-2.0-0.27-0.245-3.245,0,1,1,81,false,stim,false,0,369.0,3,1,0,96048,WMM2,607723,false,false,817,image-keyboard-response,38
true,7,2,4,2,true,d,false,true,0.0-2.0-0.27-0.246-3.246,0,1,1,68,false,stim,false,2,583.6000000238419,3,0,2,96048,WMM2,609816,false,false,820,image-keyboard-response,39
true,7,1,4,1,true,z,false,false,0.0-2.0-0.27-0.247-3.247,0,1,1,90,false,stim,false,1,819.8000000715256,3,1,1,96048,WMM2,612145,false,true,823,image-keyboard-response,40
true,7,2,4,1,false,z,true,false,0.0-2.0-0.27-0.248-3.248,0,1,1,68,false,stim,false,1,642.0,3,1,1,96048,WMM2,614297,false,false,826,image-keyboard-response,41
true,7,2,4,2,true,d,false,true,0.0-2.0-0.27-0.249-3.249,0,1,1,68,false,stim,false,2,696.7999999523163,3,0,2,96048,WMM2,616502,false,false,829,image-keyboard-response,42
true,7,0,4,0,true,q,false,true,0.0-2.0-0.27-0.250-3.250,0,1,1,81,false,stim,false,0,379.90000009536743,3,1,0,96048,WMM2,618392,false,false,832,image-keyboard-response,43
true,8,2,2,0,false,q,false,false,0.0-2.0-0.27-0.251-3.251,1,1,0,68,true,stim,true,2,792.0,3,0,2,96048,WMM2,620693,false,false,835,image-keyboard-response,1
true,8,2,2,1,false,z,true,false,0.0-2.0-0.28-0.252-3.252,1,1,0,68,false,stim,false,1,1169.7999999523163,3,1,1,96048,WMM2,623372,false,false,838,image-keyboard-response,2
true,8,0,2,0,true,q,false,true,0.0-2.0-0.28-0.253-3.253,1,1,0,81,false,stim,false,0,437.60000002384186,3,1,0,96048,WMM2,625319,false,false,841,image-keyboard-response,3
true,8,0,2,0,true,q,false,true,0.0-2.0-0.28-0.254-3.254,1,1,0,81,false,stim,false,0,562.5,3,1,0,96048,WMM2,627393,false,false,844,image-keyboard-response,4
true,8,0,2,0,true,q,false,true,0.0-2.0-0.28-0.255-3.255,1,1,0,81,false,stim,false,0,507.5,3,1,0,96048,WMM2,629408,false,false,847,image-keyboard-response,5
true,8,1,2,0,false,q,true,false,0.0-2.0-0.28-0.256-3.256,1,1,0,90,false,stim,false,2,1156.6000000238419,3,0,2,96048,WMM2,632073,false,false,850,image-keyboard-response,6
true,8,1,2,1,true,z,false,true,0.0-2.0-0.28-0.257-3.257,1,1,0,90,false,stim,false,1,386.0,3,1,1,96048,WMM2,633968,false,false,853,image-keyboard-response,7
true,8,2,2,0,false,q,false,false,0.0-2.0-0.28-0.258-3.258,1,1,0,68,false,stim,true,2,359.3000000715256,3,0,2,96048,WMM2,635837,false,false,856,image-keyboard-response,8
true,8,1,2,1,true,z,false,false,0.0-2.0-0.28-0.259-3.259,1,1,0,90,false,stim,false,1,1261.1999999284744,3,1,1,96048,WMM2,638609,false,true,859,image-keyboard-response,9
true,8,1,2,0,false,q,true,false,0.0-2.0-0.28-0.260-3.260,1,1,0,90,false,stim,false,2,862.8999999761581,3,0,2,96048,WMM2,640981,false,false,862,image-keyboard-response,10
true,8,0,2,1,false,z,true,false,0.0-2.0-0.29-0.261-3.261,1,1,0,81,false,stim,false,1,455.3000000715256,3,1,1,96048,WMM2,642956,false,false,865,image-keyboard-response,11
true,8,0,2,0,true,q,false,true,0.0-2.0-0.29-0.262-3.262,1,1,0,81,false,stim,false,2,674.0999999046326,3,0,2,96048,WMM2,645141,false,false,868,image-keyboard-response,12
true,8,0,2,0,true,q,false,true,0.0-2.0-0.29-0.263-3.263,1,1,0,81,false,stim,false,2,548.5,3,0,2,96048,WMM2,647199,false,false,871,image-keyboard-response,13
true,8,0,2,0,true,q,false,true,0.0-2.0-0.29-0.264-3.264,1,1,0,81,false,stim,false,0,506.40000009536743,3,1,0,96048,WMM2,649216,false,false,874,image-keyboard-response,14
true,8,1,2,1,true,z,false,true,0.0-2.0-0.29-0.265-3.265,1,1,0,90,false,stim,false,1,388.10000002384186,3,1,1,96048,WMM2,651112,false,false,877,image-keyboard-response,15
true,8,0,2,0,true,q,false,true,0.0-2.0-0.29-0.266-3.266,1,1,0,81,false,stim,false,2,481.89999997615814,3,0,2,96048,WMM2,653102,false,false,880,image-keyboard-response,16
true,8,1,2,1,true,z,false,true,0.0-2.0-0.29-0.267-3.267,1,1,0,90,false,stim,false,1,754.2999999523163,3,1,1,96048,WMM2,655367,false,false,883,image-keyboard-response,17
true,8,0,2,0,true,q,false,true,0.0-2.0-0.29-0.268-3.268,1,1,0,81,false,stim,false,0,556.8000000715256,3,1,0,96048,WMM2,657433,false,false,886,image-keyboard-response,18
true,8,0,2,0,true,q,false,true,0.0-2.0-0.29-0.269-3.269,1,1,0,81,false,stim,false,0,474.90000009536743,3,1,0,96048,WMM2,659417,false,false,889,image-keyboard-response,19
true,8,1,2,1,true,z,false,true,0.0-2.0-0.30-0.270-3.270,1,1,0,90,false,stim,false,1,490.09999990463257,3,1,1,96048,WMM2,661417,false,false,892,image-keyboard-response,20
true,8,1,2,1,true,z,false,true,0.0-2.0-0.30-0.271-3.271,1,1,0,90,false,stim,false,1,701.3000000715256,3,1,1,96048,WMM2,663630,false,false,895,image-keyboard-response,21
true,8,0,2,0,true,q,false,true,0.0-2.0-0.30-0.272-3.272,1,1,0,81,false,stim,false,2,552.6999999284744,3,0,2,96048,WMM2,665691,false,false,898,image-keyboard-response,22
true,8,0,2,0,true,q,false,true,0.0-2.0-0.30-0.273-3.273,1,1,0,81,false,stim,false,0,742.8999999761581,3,0,0,96048,WMM2,667954,false,false,901,image-keyboard-response,23
true,8,0,2,0,true,q,false,true,0.0-2.0-0.30-0.274-3.274,1,1,0,81,false,stim,false,0,454.6999999284744,3,0,0,96048,WMM2,669919,false,false,904,image-keyboard-response,24
true,8,0,2,0,true,q,false,true,0.0-2.0-0.30-0.275-3.275,1,1,0,81,false,stim,false,2,778.8999999761581,3,0,2,96048,WMM2,672210,false,false,907,image-keyboard-response,25
true,8,0,2,0,true,q,false,true,0.0-2.0-0.30-0.276-3.276,1,1,0,81,false,stim,false,2,810.2000000476837,3,0,2,96048,WMM2,674530,false,false,910,image-keyboard-response,26
true,8,0,2,0,true,q,false,true,0.0-2.0-0.30-0.277-3.277,1,1,0,81,false,stim,false,0,593.8000000715256,3,0,0,96048,WMM2,676633,false,false,913,image-keyboard-response,27
true,8,1,2,1,true,z,false,true,0.0-2.0-0.30-0.278-3.278,1,1,0,90,false,stim,false,1,524.1999999284744,3,1,1,96048,WMM2,678666,false,false,916,image-keyboard-response,28
true,8,0,2,0,true,q,false,true,0.0-2.0-0.31-0.279-3.279,1,1,0,81,false,stim,false,2,555.3000000715256,3,0,2,96048,WMM2,680731,false,false,919,image-keyboard-response,29
true,8,0,2,0,true,q,false,true,0.0-2.0-0.31-0.280-3.280,1,1,0,81,false,stim,false,2,573.0,3,0,2,96048,WMM2,682813,false,false,922,image-keyboard-response,30
true,9,0,1,2,false,d,false,false,0.0-2.0-0.31-0.281-3.281,0,1,0,81,true,stim,true,0,624.1000000238419,3,0,0,96048,WMM2,684946,false,false,925,image-keyboard-response,1
true,9,1,1,1,true,z,false,true,0.0-2.0-0.31-0.282-3.282,0,1,0,90,false,stim,false,1,524.4000000953674,3,1,1,96048,WMM2,686979,false,false,928,image-keyboard-response,2
true,9,1,1,1,true,z,false,true,0.0-2.0-0.31-0.283-3.283,0,1,0,90,false,stim,false,1,590.6000000238419,3,1,1,96048,WMM2,689079,false,false,931,image-keyboard-response,3
true,9,1,1,1,true,z,false,true,0.0-2.0-0.31-0.284-3.284,0,1,0,90,false,stim,false,1,796.8999999761581,3,1,1,96048,WMM2,691383,false,false,934,image-keyboard-response,4
true,9,0,1,2,false,d,false,false,0.0-2.0-0.31-0.285-3.285,0,1,0,81,false,stim,true,0,534.1000000238419,3,0,0,96048,WMM2,693428,false,false,937,image-keyboard-response,5
true,9,0,1,1,false,z,false,true,0.0-2.0-0.31-0.286-3.286,0,1,0,81,false,stim,true,0,762.1000000238419,3,0,2,96048,WMM2,695699,false,true,940,image-keyboard-response,6
true,9,1,1,2,false,d,true,false,0.0-2.0-0.31-0.287-3.287,0,1,0,90,false,stim,false,0,639.1999999284744,3,0,0,96048,WMM2,697848,false,false,943,image-keyboard-response,7
true,9,0,1,1,false,z,false,false,0.0-2.0-0.32-0.288-3.288,0,1,0,81,false,stim,true,0,616.0,3,0,2,96048,WMM2,699973,false,false,946,image-keyboard-response,8
true,9,0,1,1,false,z,true,false,0.0-2.0-0.32-0.289-3.289,0,1,0,81,false,stim,false,1,1130.2999999523163,3,1,1,96048,WMM2,702612,false,false,949,image-keyboard-response,9
true,9,1,1,1,true,z,false,true,0.0-2.0-0.32-0.290-3.290,0,1,0,90,false,stim,false,1,488.60000002384186,3,1,1,96048,WMM2,704618,false,false,952,image-keyboard-response,10
true,9,0,1,1,false,z,false,false,0.0-2.0-0.32-0.291-3.291,0,1,0,81,false,stim,true,0,689.6000000238419,3,0,2,96048,WMM2,706816,false,false,955,image-keyboard-response,11
true,9,1,1,1,true,z,false,true,0.0-2.0-0.32-0.292-3.292,0,1,0,90,false,stim,false,1,520.7999999523163,3,1,1,96048,WMM2,708846,false,false,958,image-keyboard-response,12
true,9,1,1,2,false,d,true,false,0.0-2.0-0.32-0.293-3.293,0,1,0,90,false,stim,false,0,643.0,3,0,0,96048,WMM2,710998,false,false,961,image-keyboard-response,13
true,9,1,1,2,false,d,true,false,0.0-2.0-0.32-0.294-3.294,0,1,0,90,false,stim,false,0,1157.5,3,0,0,96048,WMM2,713665,false,false,964,image-keyboard-response,14
true,9,2,1,2,true,d,false,true,0.0-2.0-0.32-0.295-3.295,0,1,0,68,false,stim,false,0,591.2000000476837,3,0,0,96048,WMM2,715767,false,false,967,image-keyboard-response,15
true,9,0,1,1,false,z,false,false,0.0-2.0-0.32-0.296-3.296,0,1,0,81,false,stim,true,0,1112.5,3,0,2,96048,WMM2,718390,false,false,970,image-keyboard-response,16
true,9,1,1,1,true,z,false,true,0.0-2.0-0.33-0.297-3.297,0,1,0,90,false,stim,false,0,690.1999999284744,3,0,2,96048,WMM2,720597,false,false,973,image-keyboard-response,17
true,9,2,1,2,true,d,false,false,0.0-2.0-0.33-0.298-3.298,0,1,0,68,false,stim,false,0,763.7999999523163,3,0,0,96048,WMM2,722870,false,true,976,image-keyboard-response,18
true,9,1,1,1,true,z,false,true,0.0-2.0-0.33-0.299-3.299,0,1,0,90,false,stim,false,1,451.7999999523163,3,1,1,96048,WMM2,724831,false,false,979,image-keyboard-response,19
true,9,1,1,1,true,z,false,true,0.0-2.0-0.33-0.300-3.300,0,1,0,90,false,stim,false,0,399.89999997615814,3,0,2,96048,WMM2,726741,false,false,982,image-keyboard-response,20
true,9,1,1,1,true,z,false,false,0.0-2.0-0.33-0.301-3.301,0,1,0,90,false,stim,false,1,550.1999999284744,3,1,1,96048,WMM2,728803,false,true,985,image-keyboard-response,21
true,9,2,1,2,true,d,false,true,0.0-2.0-0.33-0.302-3.302,0,1,0,68,false,stim,false,0,713.0,3,1,0,96048,WMM2,731025,false,false,988,image-keyboard-response,22
true,9,1,1,1,true,z,false,true,0.0-2.0-0.33-0.303-3.303,0,1,0,90,false,stim,false,1,456.2999999523163,3,1,1,96048,WMM2,732992,false,false,991,image-keyboard-response,23
true,9,1,1,1,true,z,false,true,0.0-2.0-0.33-0.304-3.304,0,1,0,90,false,stim,false,0,540.6000000238419,3,0,2,96048,WMM2,735042,false,false,994,image-keyboard-response,24
true,9,2,1,2,true,d,false,false,0.0-2.0-0.33-0.305-3.305,0,1,0,68,false,stim,false,0,662.5,3,1,0,96048,WMM2,737213,false,true,997,image-keyboard-response,25
true,9,1,1,1,true,z,false,true,0.0-2.0-0.34-0.306-3.306,0,1,0,90,false,stim,false,0,509.7000000476837,3,0,2,96048,WMM2,739233,false,false,1000,image-keyboard-response,26
true,9,1,1,1,true,z,false,true,0.0-2.0-0.34-0.307-3.307,0,1,0,90,false,stim,false,0,472.2999999523163,3,0,2,96048,WMM2,741225,false,false,1003,image-keyboard-response,27
true,9,2,1,2,true,d,false,true,0.0-2.0-0.34-0.308-3.308,0,1,0,68,false,stim,false,0,1045.5,3,1,0,96048,WMM2,743781,false,false,1006,image-keyboard-response,28
true,9,2,1,2,true,d,false,true,0.0-2.0-0.34-0.309-3.309,0,1,0,68,false,stim,false,0,484.8000000715256,3,1,0,96048,WMM2,745780,false,false,1009,image-keyboard-response,29
true,9,1,1,1,true,z,false,true,0.0-2.0-0.34-0.310-3.310,0,1,0,90,false,stim,false,1,564.5,3,1,1,96048,WMM2,747853,false,false,1012,image-keyboard-response,30
true,10,1,4,1,true,z,false,true,0.0-2.0-0.34-0.311-3.311,1,1,0,90,true,stim,false,1,491.89999997615814,3,1,1,96048,WMM2,749855,false,false,1015,image-keyboard-response,1
true,10,1,4,1,true,z,false,true,0.0-2.0-0.34-0.312-3.312,1,1,0,90,false,stim,false,1,711.2000000476837,3,0,2,96048,WMM2,752077,false,false,1018,image-keyboard-response,2
true,10,2,4,2,true,d,false,true,0.0-2.0-0.34-0.313-3.313,1,1,0,68,false,stim,false,2,619.8999999761581,3,1,0,96048,WMM2,754206,false,false,1021,image-keyboard-response,3
true,10,1,4,1,true,z,false,true,0.0-2.0-0.34-0.314-3.314,1,1,0,90,false,stim,false,1,587.8999999761581,3,1,1,96048,WMM2,756304,false,false,1024,image-keyboard-response,4
true,10,1,4,1,true,z,false,true,0.0-2.0-0.35-0.315-3.315,1,1,0,90,false,stim,false,1,605.7000000476837,3,0,2,96048,WMM2,758420,false,false,1027,image-keyboard-response,5
true,10,2,4,2,true,d,false,true,0.0-2.0-0.35-0.316-3.316,1,1,0,68,false,stim,false,2,842.1000000238419,3,1,0,96048,WMM2,760772,false,false,1030,image-keyboard-response,6
true,10,1,4,1,true,z,false,false,0.0-2.0-0.35-0.317-3.317,1,1,0,90,false,stim,false,1,552.5,3,1,1,96048,WMM2,762835,false,true,1033,image-keyboard-response,7
true,10,1,4,1,true,z,false,false,0.0-2.0-0.35-0.318-3.318,1,1,0,90,false,stim,false,1,505.0,3,1,1,96048,WMM2,764851,false,true,1036,image-keyboard-response,8
true,10,1,4,1,true,z,false,false,0.0-2.0-0.35-0.319-3.319,1,1,0,90,false,stim,false,1,695.5,3,0,2,96048,WMM2,767057,false,true,1039,image-keyboard-response,9
true,10,2,4,2,true,d,false,true,0.0-2.0-0.35-0.320-3.320,1,1,0,68,false,stim,false,2,560.5,3,1,0,96048,WMM2,769127,false,false,1042,image-keyboard-response,10
true,10,2,4,2,true,d,false,true,0.0-2.0-0.35-0.321-3.321,1,1,0,68,false,stim,false,2,816.5,3,1,0,96048,WMM2,771455,false,false,1045,image-keyboard-response,11
true,10,1,4,1,true,z,false,true,0.0-2.0-0.35-0.322-3.322,1,1,0,90,false,stim,false,1,538.2999999523163,3,1,1,96048,WMM2,773503,false,false,1048,image-keyboard-response,12
true,10,1,4,1,true,z,false,false,0.0-2.0-0.35-0.323-3.323,1,1,0,90,false,stim,false,1,470.3000000715256,3,0,2,96048,WMM2,775482,false,true,1051,image-keyboard-response,13
true,10,2,4,2,true,d,false,false,0.0-2.0-0.36-0.324-3.324,1,1,0,68,false,stim,false,2,675.6000000238419,3,1,0,96048,WMM2,777667,false,true,1054,image-keyboard-response,14
true,10,0,4,1,false,z,true,false,0.0-2.0-0.36-0.325-3.325,1,1,0,81,false,stim,false,1,436.2000000476837,3,0,2,96048,WMM2,779613,false,false,1057,image-keyboard-response,15
true,10,1,4,1,true,z,false,true,0.0-2.0-0.36-0.326-3.326,1,1,0,90,false,stim,false,1,692.7000000476837,3,0,2,96048,WMM2,781814,false,false,1060,image-keyboard-response,16
true,10,1,4,1,true,z,false,true,0.0-2.0-0.36-0.327-3.327,1,1,0,90,false,stim,false,1,490.2000000476837,3,1,1,96048,WMM2,783816,false,false,1063,image-keyboard-response,17
true,10,1,4,1,true,z,false,false,0.0-2.0-0.36-0.328-3.328,1,1,0,90,false,stim,false,1,626.2000000476837,3,1,1,96048,WMM2,785951,false,true,1066,image-keyboard-response,18
true,10,1,4,2,false,d,true,false,0.0-2.0-0.36-0.329-3.329,1,1,0,90,false,stim,false,2,1006.5,3,1,0,96048,WMM2,788480,false,false,1069,image-keyboard-response,19
true,10,1,4,1,true,z,false,false,0.0-2.0-0.36-0.330-3.330,1,1,0,90,false,stim,false,1,501.7000000476837,3,1,1,96048,WMM2,790492,false,true,1072,image-keyboard-response,20
true,10,2,4,2,true,d,false,false,0.0-2.0-0.36-0.331-3.331,1,1,0,68,false,stim,false,2,799.8999999761581,3,1,0,96048,WMM2,792805,false,true,1075,image-keyboard-response,21
true,10,1,4,1,true,z,false,true,0.0-2.0-0.36-0.332-3.332,1,1,0,90,false,stim,false,1,481.39999997615814,3,0,2,96048,WMM2,794799,false,false,1078,image-keyboard-response,22
true,10,0,4,2,false,d,true,false,0.0-2.0-0.37-0.333-3.333,1,1,0,81,false,stim,false,2,498.40000009536743,3,1,0,96048,WMM2,796810,false,false,1081,image-keyboard-response,23
true,10,0,4,2,false,d,true,false,0.0-2.0-0.37-0.334-3.334,1,1,0,81,false,stim,false,2,945.5,3,1,0,96048,WMM2,799268,false,false,1084,image-keyboard-response,24
true,10,0,4,2,false,d,true,false,0.0-2.0-0.37-0.335-3.335,1,1,0,81,false,stim,false,2,982.2999999523163,3,1,0,96048,WMM2,801763,false,false,1087,image-keyboard-response,25
true,10,1,4,1,true,z,false,true,0.0-2.0-0.37-0.336-3.336,1,1,0,90,false,stim,false,1,687.0999999046326,3,0,2,96048,WMM2,803977,false,false,1090,image-keyboard-response,26
true,10,1,4,1,true,z,false,true,0.0-2.0-0.37-0.337-3.337,1,1,0,90,false,stim,false,1,548.7000000476837,3,1,1,96048,WMM2,806038,false,false,1093,image-keyboard-response,27
true,10,1,4,1,true,z,false,false,0.0-2.0-0.37-0.338-3.338,1,1,0,90,false,stim,false,1,638.5,3,1,1,96048,WMM2,808189,false,true,1096,image-keyboard-response,28
true,10,1,4,1,true,z,false,true,0.0-2.0-0.37-0.339-3.339,1,1,0,90,false,stim,false,1,601.1999999284744,3,0,2,96048,WMM2,810302,false,false,1099,image-keyboard-response,29
true,10,1,4,1,true,z,false,true,0.0-2.0-0.37-0.340-3.340,1,1,0,90,false,stim,false,1,445.8000000715256,3,0,2,96048,WMM2,812273,false,false,1102,image-keyboard-response,30
true,10,1,4,1,true,z,false,true,0.0-2.0-0.37-0.341-3.341,1,1,0,90,false,stim,false,1,521.3000000715256,3,1,1,96048,WMM2,814315,false,false,1105,image-keyboard-response,31
true,10,2,4,2,true,d,false,true,0.0-2.0-0.38-0.342-3.342,1,1,0,68,false,stim,false,2,380.0,3,1,0,96048,WMM2,816219,false,false,1108,image-keyboard-response,32
true,10,2,4,2,true,d,false,true,0.0-2.0-0.38-0.343-3.343,1,1,0,68,false,stim,false,2,508.5,3,1,0,96048,WMM2,818241,false,false,1111,image-keyboard-response,33
true,10,1,4,1,true,z,false,true,0.0-2.0-0.38-0.344-3.344,1,1,0,90,false,stim,false,1,500.40000009536743,3,0,1,96048,WMM2,820253,false,false,1114,image-keyboard-response,34
true,10,1,4,1,true,z,false,true,0.0-2.0-0.38-0.345-3.345,1,1,0,90,false,stim,false,1,498.60000002384186,3,0,1,96048,WMM2,822262,false,false,1117,image-keyboard-response,35
true,10,1,4,1,true,z,false,true,0.0-2.0-0.38-0.346-3.346,1,1,0,90,false,stim,false,1,764.2000000476837,3,1,2,96048,WMM2,824548,false,false,1120,image-keyboard-response,36
true,10,1,4,1,true,z,false,true,0.0-2.0-0.38-0.347-3.347,1,1,0,90,false,stim,false,1,530.6999999284744,3,1,2,96048,WMM2,826589,false,false,1123,image-keyboard-response,37
true,10,2,4,2,true,d,false,true,0.0-2.0-0.38-0.348-3.348,1,1,0,68,false,stim,false,2,842.8999999761581,3,1,0,96048,WMM2,828942,false,false,1126,image-keyboard-response,38
true,10,1,4,1,true,z,false,true,0.0-2.0-0.38-0.349-3.349,1,1,0,90,false,stim,false,1,578.5,3,1,2,96048,WMM2,831029,false,false,1129,image-keyboard-response,39
true,10,1,4,1,true,z,false,true,0.0-2.0-0.38-0.350-3.350,1,1,0,90,false,stim,false,1,414.10000002384186,3,0,1,96048,WMM2,832954,false,false,1132,image-keyboard-response,40
true,10,1,4,1,true,z,false,false,0.0-2.0-0.39-0.351-3.351,1,1,0,90,false,stim,false,1,492.60000002384186,3,1,2,96048,WMM2,834957,false,true,1135,image-keyboard-response,41
true,10,1,4,1,true,z,false,true,0.0-2.0-0.39-0.352-3.352,1,1,0,90,false,stim,false,1,501.39999997615814,3,1,2,96048,WMM2,836968,false,false,1138,image-keyboard-response,42
true,10,2,4,2,true,d,false,true,0.0-2.0-0.39-0.353-3.353,1,1,0,68,false,stim,false,2,590.5999999046326,3,1,0,96048,WMM2,839069,false,false,1141,image-keyboard-response,43
true,11,2,3,2,true,d,false,true,0.0-2.0-0.39-0.354-3.354,1,0,1,68,true,stim,false,1,498.39999997615814,3,0,1,96048,WMM2,841076,false,false,1144,image-keyboard-response,1
true,11,1,3,1,true,z,false,false,0.0-2.0-0.39-0.355-3.355,1,0,1,90,false,stim,false,1,796.5,3,1,2,96048,WMM2,843382,false,true,1147,image-keyboard-response,2
true,11,2,3,2,true,d,false,false,0.0-2.0-0.39-0.356-3.356,1,0,1,68,false,stim,false,1,1443.1000000238419,3,0,1,96048,WMM2,846336,false,true,1150,image-keyboard-response,3
true,11,1,3,2,false,d,false,false,0.0-2.0-0.39-0.357-3.357,1,0,1,90,false,stim,true,1,589.8999999761581,3,0,1,96048,WMM2,848436,false,false,1153,image-keyboard-response,4
true,11,2,3,2,true,d,false,false,0.0-2.0-0.39-0.358-3.358,1,0,1,68,false,stim,false,2,843.0,3,1,0,96048,WMM2,850788,false,true,1156,image-keyboard-response,5
true,11,0,3,2,false,d,true,false,0.0-2.0-0.39-0.359-3.359,1,0,1,81,false,stim,false,2,395.10000002384186,3,1,0,96048,WMM2,852692,false,false,1159,image-keyboard-response,6
true,11,1,3,2,false,d,true,true,0.0-2.0-0.40-0.360-3.360,1,0,1,90,false,stim,false,2,410.39999997615814,3,1,0,96048,WMM2,854614,false,true,1162,image-keyboard-response,7
true,11,1,3,2,false,d,false,false,0.0-2.0-0.40-0.361-3.361,1,0,1,90,false,stim,true,1,768.7999999523163,3,0,1,96048,WMM2,856893,false,false,1165,image-keyboard-response,8
true,11,1,3,2,false,d,true,true,0.0-2.0-0.40-0.362-3.362,1,0,1,90,false,stim,false,2,728.0999999046326,3,1,0,96048,WMM2,859131,false,true,1168,image-keyboard-response,9
true,11,2,3,1,false,z,true,false,0.0-2.0-0.40-0.363-3.363,1,0,1,68,false,stim,false,1,925.1999999284744,3,1,2,96048,WMM2,861564,false,false,1171,image-keyboard-response,10
true,11,0,3,1,false,z,true,true,0.0-2.0-0.40-0.364-3.364,1,0,1,81,false,stim,false,1,625.3999999761581,3,1,2,96048,WMM2,863700,false,true,1174,image-keyboard-response,11
true,11,2,3,2,true,d,false,true,0.0-2.0-0.40-0.365-3.365,1,0,1,68,false,stim,false,1,404.0,3,0,1,96048,WMM2,865614,false,false,1177,image-keyboard-response,12
true,11,1,3,2,false,d,true,false,0.0-2.0-0.40-0.366-3.366,1,0,1,90,false,stim,false,2,545.0,3,1,0,96048,WMM2,867669,false,false,1180,image-keyboard-response,13
true,11,2,3,2,true,d,false,true,0.0-2.0-0.40-0.367-3.367,1,0,1,68,false,stim,false,1,746.2999999523163,3,0,1,96048,WMM2,869925,false,false,1183,image-keyboard-response,14
true,11,0,3,1,false,z,true,false,0.0-2.0-0.40-0.368-3.368,1,0,1,81,false,stim,false,1,401.09999990463257,3,1,2,96048,WMM2,871838,false,false,1186,image-keyboard-response,15
true,11,0,3,1,false,z,true,false,0.0-2.0-0.41-0.369-3.369,1,0,1,81,false,stim,false,1,712.5,3,1,2,96048,WMM2,874061,false,false,1189,image-keyboard-response,16
true,11,2,3,2,true,d,false,true,0.0-2.0-0.41-0.370-3.370,1,0,1,68,false,stim,false,1,705.2999999523163,3,0,1,96048,WMM2,876277,false,false,1192,image-keyboard-response,17
true,11,2,3,2,true,d,false,true,0.0-2.0-0.41-0.371-3.371,1,0,1,68,false,stim,false,1,416.2999999523163,3,0,1,96048,WMM2,878204,false,false,1195,image-keyboard-response,18
true,11,0,3,1,false,z,true,true,0.0-2.0-0.41-0.372-3.372,1,0,1,81,false,stim,false,1,1101.2000000476837,3,1,2,96048,WMM2,880814,false,true,1198,image-keyboard-response,19
true,11,1,3,2,false,d,true,false,0.0-2.0-0.41-0.373-3.373,1,0,1,90,false,stim,false,2,322.7000000476837,3,1,0,96048,WMM2,882658,false,false,1201,image-keyboard-response,20
true,11,2,3,2,true,d,false,true,0.0-2.0-0.41-0.374-3.374,1,0,1,68,false,stim,false,1,784.2000000476837,3,0,1,96048,WMM2,884957,false,false,1204,image-keyboard-response,21
true,11,0,3,2,false,d,true,false,0.0-2.0-0.41-0.375-3.375,1,0,1,81,false,stim,false,2,524.7000000476837,3,1,0,96048,WMM2,886995,false,false,1207,image-keyboard-response,22
true,11,0,3,1,false,z,true,false,0.0-2.0-0.41-0.376-3.376,1,0,1,81,false,stim,false,1,735.6000000238419,3,1,2,96048,WMM2,889245,false,false,1210,image-keyboard-response,23
true,11,1,3,2,false,d,true,false,0.0-2.0-0.41-0.377-3.377,1,0,1,90,false,stim,false,2,417.0,3,1,0,96048,WMM2,891178,false,false,1213,image-keyboard-response,24
true,11,1,3,1,true,z,false,true,0.0-2.0-0.42-0.378-3.378,1,0,1,90,false,stim,false,1,924.6000000238419,3,1,2,96048,WMM2,893617,false,false,1216,image-keyboard-response,25
true,11,2,3,2,true,d,false,true,0.0-2.0-0.42-0.379-3.379,1,0,1,68,false,stim,false,2,1427.8999999761581,3,1,0,96048,WMM2,896560,false,false,1219,image-keyboard-response,26
true,11,2,3,2,true,d,false,true,0.0-2.0-0.42-0.380-3.380,1,0,1,68,false,stim,false,2,429.0,3,1,0,96048,WMM2,898501,false,false,1222,image-keyboard-response,27
true,11,1,3,1,true,z,false,true,0.0-2.0-0.42-0.381-3.381,1,0,1,90,false,stim,false,1,792.6000000238419,3,1,2,96048,WMM2,900810,false,false,1225,image-keyboard-response,28
true,11,2,3,2,true,d,false,true,0.0-2.0-0.42-0.382-3.382,1,0,1,68,false,stim,false,1,589.5999999046326,3,1,1,96048,WMM2,902915,false,false,1228,image-keyboard-response,29
true,11,2,3,2,true,d,false,true,0.0-2.0-0.42-0.383-3.383,1,0,1,68,false,stim,false,1,526.2999999523163,3,1,1,96048,WMM2,904952,false,false,1231,image-keyboard-response,30
true,11,2,3,2,true,d,false,true,0.0-2.0-0.42-0.384-3.384,1,0,1,68,false,stim,false,1,666.4000000953674,3,1,1,96048,WMM2,907128,false,false,1234,image-keyboard-response,31
true,11,1,3,1,true,z,false,true,0.0-2.0-0.42-0.385-3.385,1,0,1,90,false,stim,false,1,615.2999999523163,3,1,2,96048,WMM2,909254,false,false,1237,image-keyboard-response,32
true,11,2,3,2,true,d,false,true,0.0-2.0-0.42-0.386-3.386,1,0,1,68,false,stim,false,2,894.2000000476837,3,0,0,96048,WMM2,911657,false,false,1240,image-keyboard-response,33
true,11,2,3,2,true,d,false,true,0.0-2.0-0.43-0.387-3.387,1,0,1,68,false,stim,false,2,720.3999999761581,3,0,0,96048,WMM2,913888,false,false,1243,image-keyboard-response,34
true,11,2,3,2,true,d,false,true,0.0-2.0-0.43-0.388-3.388,1,0,1,68,false,stim,false,1,553.0,3,1,1,96048,WMM2,915951,false,false,1246,image-keyboard-response,35
true,11,2,3,2,true,d,false,true,0.0-2.0-0.43-0.389-3.389,1,0,1,68,false,stim,false,2,571.3000000715256,3,0,0,96048,WMM2,918043,false,false,1249,image-keyboard-response,36
true,11,1,3,1,true,z,false,false,0.0-2.0-0.43-0.390-3.390,1,0,1,90,false,stim,false,1,527.5,3,1,2,96048,WMM2,920081,false,true,1252,image-keyboard-response,37
true,11,2,3,2,true,d,false,false,0.0-2.0-0.43-0.391-3.391,1,0,1,68,false,stim,false,1,539.8999999761581,3,1,1,96048,WMM2,922132,false,true,1255,image-keyboard-response,38
true,12,1,3,1,true,z,false,true,0.0-2.0-0.43-0.392-3.392,0,1,1,90,true,stim,false,1,363.7999999523163,3,1,2,96048,WMM2,924007,false,false,1258,image-keyboard-response,1
true,12,2,3,0,false,q,false,false,0.0-2.0-0.43-0.393-3.393,0,1,1,68,false,stim,true,2,613.6000000238419,3,0,0,96048,WMM2,926130,false,false,1261,image-keyboard-response,2
true,12,1,3,1,true,z,false,true,0.0-2.0-0.43-0.394-3.394,0,1,1,90,false,stim,false,1,655.8999999761581,3,1,2,96048,WMM2,928295,false,false,1264,image-keyboard-response,3
true,12,2,3,2,true,d,false,true,0.0-2.0-0.43-0.395-3.395,0,1,1,68,false,stim,false,2,806.6000000238419,3,1,1,96048,WMM2,930611,false,false,1267,image-keyboard-response,4
true,12,1,3,1,true,z,false,true,0.0-2.0-0.44-0.396-3.396,0,1,1,90,false,stim,false,1,537.7999999523163,3,1,2,96048,WMM2,932660,false,false,1270,image-keyboard-response,5
true,12,2,3,0,false,q,false,false,0.0-2.0-0.44-0.397-3.397,0,1,1,68,false,stim,true,2,598.6000000238419,3,0,0,96048,WMM2,934769,false,false,1273,image-keyboard-response,6
true,12,1,3,1,true,z,false,true,0.0-2.0-0.44-0.398-3.398,0,1,1,90,false,stim,false,1,849.3999999761581,3,1,2,96048,WMM2,937127,false,false,1276,image-keyboard-response,7
true,12,2,3,0,false,q,false,false,0.0-2.0-0.44-0.399-3.399,0,1,1,68,false,stim,true,2,802.8000000715256,3,0,0,96048,WMM2,939441,false,false,1279,image-keyboard-response,8
true,12,2,3,2,true,d,false,false,0.0-2.0-0.44-0.400-3.400,0,1,1,68,false,stim,false,2,1039.8000000715256,3,1,1,96048,WMM2,941991,false,true,1282,image-keyboard-response,9
true,12,0,3,0,true,q,false,false,0.0-2.0-0.44-0.401-3.401,0,1,1,81,false,stim,false,2,479.5,3,0,0,96048,WMM2,943981,false,true,1285,image-keyboard-response,10
true,12,0,3,2,false,d,true,false,0.0-2.0-0.44-0.402-3.402,0,1,1,81,false,stim,false,2,687.0999999046326,3,1,1,96048,WMM2,946177,false,false,1288,image-keyboard-response,11
true,12,1,3,2,false,d,true,false,0.0-2.0-0.44-0.403-3.403,0,1,1,90,false,stim,false,2,972.8000000715256,3,1,1,96048,WMM2,948663,false,false,1291,image-keyboard-response,12
true,12,1,3,1,true,z,false,false,0.0-2.0-0.44-0.404-3.404,0,1,1,90,false,stim,false,1,441.10000002384186,3,1,2,96048,WMM2,950616,false,true,1294,image-keyboard-response,13
true,12,1,3,0,false,q,true,false,0.0-2.0-0.45-0.405-3.405,0,1,1,90,false,stim,false,2,343.7000000476837,3,0,0,96048,WMM2,952470,false,false,1297,image-keyboard-response,14
true,12,1,3,2,false,d,true,false,0.0-2.0-0.45-0.406-3.406,0,1,1,90,false,stim,false,2,663.8000000715256,3,1,1,96048,WMM2,954644,false,false,1300,image-keyboard-response,15
true,12,2,3,0,false,q,false,false,0.0-2.0-0.45-0.407-3.407,0,1,1,68,false,stim,true,2,547.0,3,0,0,96048,WMM2,956720,false,false,1303,image-keyboard-response,16
true,12,0,3,1,false,z,true,true,0.0-2.0-0.45-0.408-3.408,0,1,1,81,false,stim,false,1,392.89999997615814,3,1,2,96048,WMM2,958624,false,true,1306,image-keyboard-response,17
true,12,0,3,2,false,d,true,false,0.0-2.0-0.45-0.409-3.409,0,1,1,81,false,stim,false,2,948.8999999761581,3,1,1,96048,WMM2,961083,false,false,1309,image-keyboard-response,18
true,12,1,3,0,false,q,true,false,0.0-2.0-0.45-0.410-3.410,0,1,1,90,false,stim,false,2,411.0,3,0,0,96048,WMM2,963004,false,false,1312,image-keyboard-response,19
true,12,0,3,1,false,z,true,false,0.0-2.0-0.45-0.411-3.411,0,1,1,81,false,stim,false,1,461.5,3,1,2,96048,WMM2,964977,false,false,1315,image-keyboard-response,20
true,12,0,3,1,false,z,true,true,0.0-2.0-0.45-0.412-3.412,0,1,1,81,false,stim,false,1,547.6000000238419,3,1,2,96048,WMM2,967038,false,true,1318,image-keyboard-response,21
true,12,0,3,2,false,d,true,false,0.0-2.0-0.45-0.413-3.413,0,1,1,81,false,stim,false,2,1328.3999999761581,3,1,1,96048,WMM2,969881,false,false,1321,image-keyboard-response,22
true,12,0,3,1,false,z,true,false,0.0-2.0-0.46-0.414-3.414,0,1,1,81,false,stim,false,1,717.3000000715256,3,1,2,96048,WMM2,972111,false,false,1324,image-keyboard-response,23
true,12,1,3,0,false,q,true,false,0.0-2.0-0.46-0.415-3.415,0,1,1,90,false,stim,false,2,1095.8000000715256,3,0,0,96048,WMM2,974721,false,false,1327,image-keyboard-response,24
true,12,1,3,2,false,d,true,false,0.0-2.0-0.46-0.416-3.416,0,1,1,90,false,stim,false,2,1019.7999999523163,3,1,1,96048,WMM2,977254,false,false,1330,image-keyboard-response,25
true,12,2,3,2,true,d,false,true,0.0-2.0-0.46-0.417-3.417,0,1,1,68,false,stim,false,2,814.5,3,1,1,96048,WMM2,979584,false,false,1333,image-keyboard-response,26
true,12,0,3,1,false,z,true,true,0.0-2.0-0.46-0.418-3.418,0,1,1,81,false,stim,false,1,610.3999999761581,3,1,2,96048,WMM2,981707,false,true,1336,image-keyboard-response,27
true,12,2,3,2,true,d,false,true,0.0-2.0-0.46-0.419-3.419,0,1,1,68,false,stim,false,2,818.2999999523163,3,1,1,96048,WMM2,984048,false,false,1339,image-keyboard-response,28
true,12,1,3,0,false,q,true,false,0.0-2.0-0.46-0.420-3.420,0,1,1,90,false,stim,false,2,696.5999999046326,3,0,0,96048,WMM2,986258,false,false,1342,image-keyboard-response,29
true,12,0,3,0,true,q,false,true,0.0-2.0-0.46-0.421-3.421,0,1,1,81,false,stim,false,2,732.1000000238419,3,0,0,96048,WMM2,988506,false,false,1345,image-keyboard-response,30
true,12,0,3,1,false,z,true,true,0.0-2.0-0.46-0.422-3.422,0,1,1,81,false,stim,false,1,573.3999999761581,3,1,2,96048,WMM2,990594,false,true,1348,image-keyboard-response,31
true,12,0,3,0,true,q,false,true,0.0-2.0-0.47-0.423-3.423,0,1,1,81,false,stim,false,2,615.2000000476837,3,0,0,96048,WMM2,992724,false,false,1351,image-keyboard-response,32
true,12,0,3,1,false,z,true,false,0.0-2.0-0.47-0.424-3.424,0,1,1,81,false,stim,false,1,689.8000000715256,3,1,2,96048,WMM2,994928,false,false,1354,image-keyboard-response,33
true,12,2,3,2,true,d,false,false,0.0-2.0-0.47-0.425-3.425,0,1,1,68,false,stim,false,2,531.6000000238419,3,1,1,96048,WMM2,996973,false,true,1357,image-keyboard-response,34
true,12,0,3,0,true,q,false,true,0.0-2.0-0.47-0.426-3.426,0,1,1,81,false,stim,false,2,515.5,3,0,0,96048,WMM2,999003,false,false,1360,image-keyboard-response,35
true,12,0,3,1,false,z,true,false,0.0-2.0-0.47-0.427-3.427,0,1,1,81,false,stim,false,1,645.0,3,1,2,96048,WMM2,1001162,false,false,1363,image-keyboard-response,36
true,12,2,3,2,true,d,false,true,0.0-2.0-0.47-0.428-3.428,0,1,1,68,false,stim,false,2,765.5,3,1,1,96048,WMM2,1003442,false,false,1366,image-keyboard-response,37
true,12,0,3,0,true,q,false,true,0.0-2.0-0.47-0.429-3.429,0,1,1,81,false,stim,false,2,585.5,3,0,0,96048,WMM2,1005547,false,false,1369,image-keyboard-response,38
true,12,2,3,2,true,d,false,true,0.0-2.0-0.47-0.430-3.430,0,1,1,68,false,stim,false,2,765.6000000238419,3,1,1,96048,WMM2,1007828,false,false,1372,image-keyboard-response,39
true,12,0,3,1,false,z,true,false,0.0-2.0-0.47-0.431-3.431,0,1,1,81,false,stim,false,1,519.8000000715256,3,1,2,96048,WMM2,1009862,false,false,1375,image-keyboard-response,40
true,12,0,3,0,true,q,false,true,0.0-2.0-0.48-0.432-3.432,0,1,1,81,false,stim,false,2,725.3000000715256,3,0,0,96048,WMM2,1012103,false,false,1378,image-keyboard-response,41
true,12,0,3,0,true,q,false,true,0.0-2.0-0.48-0.433-3.433,0,1,1,81,false,stim,false,2,546.8000000715256,3,0,0,96048,WMM2,1014164,false,false,1381,image-keyboard-response,42
true,12,1,3,1,true,z,false,true,0.0-2.0-0.48-0.434-3.434,0,1,1,90,false,stim,false,1,415.89999997615814,3,1,2,96048,WMM2,1016097,false,false,1384,image-keyboard-response,43
true,12,2,3,2,true,d,false,false,0.0-2.0-0.48-0.435-3.435,0,1,1,68,false,stim,false,2,550.1000000238419,3,1,1,96048,WMM2,1018160,false,true,1387,image-keyboard-response,44
true,12,0,3,0,true,q,false,true,0.0-2.0-0.48-0.436-3.436,0,1,1,81,false,stim,false,2,502.0,3,0,0,96048,WMM2,1020178,false,false,1390,image-keyboard-response,45
true,12,2,3,2,true,d,false,true,0.0-2.0-0.48-0.437-3.437,0,1,1,68,false,stim,false,2,648.8999999761581,3,1,1,96048,WMM2,1022342,false,false,1393,image-keyboard-response,46
true,12,1,3,1,true,z,false,true,0.0-2.0-0.48-0.438-3.438,0,1,1,90,false,stim,false,1,961.1999999284744,3,1,2,96048,WMM2,1024818,false,false,1396,image-keyboard-response,47
true,12,2,3,2,true,d,false,true,0.0-2.0-0.48-0.439-3.439,0,1,1,68,false,stim,false,2,717.6999999284744,3,0,1,96048,WMM2,1027051,false,false,1399,image-keyboard-response,48
true,12,1,3,1,true,z,false,false,0.0-2.0-0.48-0.440-3.440,0,1,1,90,false,stim,false,1,1024.5,3,1,2,96048,WMM2,1029614,false,true,1402,image-keyboard-response,49
true,12,2,3,2,true,d,false,true,0.0-2.0-0.49-0.441-3.441,0,1,1,68,false,stim,false,2,637.8000000715256,3,0,1,96048,WMM2,1031763,false,false,1405,image-keyboard-response,50
true,12,1,3,1,true,z,false,true,0.0-2.0-0.49-0.442-3.442,0,1,1,90,false,stim,false,1,697.2000000476837,3,1,2,96048,WMM2,1033971,false,false,1408,image-keyboard-response,51
true,12,2,3,2,true,d,false,true,0.0-2.0-0.49-0.443-3.443,0,1,1,68,false,stim,false,2,600.8000000715256,3,0,1,96048,WMM2,1036084,false,false,1411,image-keyboard-response,52
true,12,2,3,2,true,d,false,true,0.0-2.0-0.49-0.444-3.444,0,1,1,68,false,stim,false,2,702.8999999761581,3,0,1,96048,WMM2,1038297,false,false,1414,image-keyboard-response,53
true,12,0,3,0,true,q,false,true,0.0-2.0-0.49-0.445-3.445,0,1,1,81,false,stim,false,2,554.6000000238419,3,0,0,96048,WMM2,1040363,false,false,1417,image-keyboard-response,54
true,12,0,3,0,true,q,false,true,0.0-2.0-0.49-0.446-3.446,0,1,1,81,false,stim,false,2,578.6000000238419,3,0,0,96048,WMM2,1042452,false,false,1420,image-keyboard-response,55
true,12,0,3,0,true,q,false,true,0.0-2.0-0.49-0.447-3.447,0,1,1,81,false,stim,false,2,523.2000000476837,3,0,0,96048,WMM2,1044486,false,false,1423,image-keyboard-response,56
true,12,1,3,1,true,z,false,true,0.0-2.0-0.49-0.448-3.448,0,1,1,90,false,stim,false,1,674.2999999523163,3,1,2,96048,WMM2,1046670,false,false,1426,image-keyboard-response,57
true,13,1,1,1,true,z,false,true,0.0-2.0-0.49-0.449-3.449,0,0,1,90,true,stim,false,1,651.3999999761581,3,1,2,96048,WMM2,1048841,false,false,1429,image-keyboard-response,1
true,13,0,1,2,false,d,false,false,0.0-2.0-0.50-0.450-3.450,0,0,1,81,false,stim,true,0,631.1000000238419,3,0,0,96048,WMM2,1050997,false,false,1432,image-keyboard-response,2
true,13,1,1,1,true,z,false,true,0.0-2.0-0.50-0.451-3.451,0,0,1,90,false,stim,false,1,663.2999999523163,3,1,2,96048,WMM2,1053171,false,false,1435,image-keyboard-response,3
true,13,2,1,0,false,q,false,false,0.0-2.0-0.50-0.452-3.452,0,0,1,68,false,stim,true,2,449.10000002384186,3,0,1,96048,WMM2,1055134,false,false,1438,image-keyboard-response,4
true,13,1,1,1,true,z,false,false,0.0-2.0-0.50-0.453-3.453,0,0,1,90,false,stim,false,1,759.2999999523163,3,1,2,96048,WMM2,1057405,false,true,1441,image-keyboard-response,5
true,13,2,1,0,false,q,false,false,0.0-2.0-0.50-0.454-3.454,0,0,1,68,false,stim,true,2,580.8999999761581,3,0,1,96048,WMM2,1059497,false,false,1444,image-keyboard-response,6
true,13,2,1,0,false,q,false,false,0.0-2.0-0.50-0.455-3.455,0,0,1,68,false,stim,true,2,738.6000000238419,3,0,1,96048,WMM2,1061746,false,false,1447,image-keyboard-response,7
true,13,1,1,1,true,z,false,true,0.0-2.0-0.50-0.456-3.456,0,0,1,90,false,stim,false,1,947.3999999761581,3,1,2,96048,WMM2,1064203,false,false,1450,image-keyboard-response,8
true,13,0,1,2,false,d,false,false,0.0-2.0-0.50-0.457-3.457,0,0,1,81,false,stim,true,0,623.0,3,0,0,96048,WMM2,1066337,false,false,1453,image-keyboard-response,9
true,13,0,1,2,false,d,false,false,0.0-2.0-0.50-0.458-3.458,0,0,1,81,false,stim,true,0,1092.2000000476837,3,0,0,96048,WMM2,1068940,false,false,1456,image-keyboard-response,10
true,13,1,1,1,true,z,false,true,0.0-2.0-0.51-0.459-3.459,0,0,1,90,false,stim,false,1,473.09999990463257,3,1,2,96048,WMM2,1070925,false,false,1459,image-keyboard-response,11
true,13,0,1,0,true,q,false,true,0.0-2.0-0.51-0.460-3.460,0,0,1,81,false,stim,false,2,872.1999999284744,3,0,1,96048,WMM2,1073308,false,false,1462,image-keyboard-response,12
true,13,2,1,2,true,d,false,true,0.0-2.0-0.51-0.461-3.461,0,0,1,68,false,stim,false,0,677.3000000715256,3,0,0,96048,WMM2,1075496,false,false,1465,image-keyboard-response,13
true,13,1,1,1,true,z,false,true,0.0-2.0-0.51-0.462-3.462,0,0,1,90,false,stim,false,1,787.9000000953674,3,1,2,96048,WMM2,1077794,false,false,1468,image-keyboard-response,14
true,13,0,1,0,true,q,false,true,0.0-2.0-0.51-0.463-3.463,0,0,1,81,false,stim,false,2,704.3999999761581,3,0,1,96048,WMM2,1080008,false,false,1471,image-keyboard-response,15
true,13,1,1,1,true,z,false,true,0.0-2.0-0.51-0.464-3.464,0,0,1,90,false,stim,false,1,725.2000000476837,3,1,2,96048,WMM2,1082246,false,false,1474,image-keyboard-response,16
true,13,2,1,2,true,d,false,true,0.0-2.0-0.51-0.465-3.465,0,0,1,68,false,stim,false,0,376.39999997615814,3,0,0,96048,WMM2,1084133,false,false,1477,image-keyboard-response,17
true,13,0,1,0,true,q,false,true,0.0-2.0-0.51-0.466-3.466,0,0,1,81,false,stim,false,2,539.0,3,0,1,96048,WMM2,1086184,false,false,1480,image-keyboard-response,18
true,13,0,1,2,false,d,false,false,0.0-2.0-0.51-0.467-3.467,0,0,1,81,false,stim,true,0,684.1000000238419,3,0,0,96048,WMM2,1088379,false,false,1483,image-keyboard-response,19
true,13,2,1,2,true,d,false,true,0.0-2.0-0.52-0.468-3.468,0,0,1,68,false,stim,false,0,692.1000000238419,3,0,0,96048,WMM2,1090582,false,false,1486,image-keyboard-response,20
true,13,2,1,2,true,d,false,true,0.0-2.0-0.52-0.469-3.469,0,0,1,68,false,stim,false,0,541.0,3,0,0,96048,WMM2,1092640,false,false,1489,image-keyboard-response,21
true,13,0,1,0,true,q,false,true,0.0-2.0-0.52-0.470-3.470,0,0,1,81,false,stim,false,2,814.7999999523163,3,0,1,96048,WMM2,1094970,false,false,1492,image-keyboard-response,22
true,13,0,1,0,true,q,false,true,0.0-2.0-0.52-0.471-3.471,0,0,1,81,false,stim,false,2,512.1000000238419,3,0,1,96048,WMM2,1096992,false,false,1495,image-keyboard-response,23
true,13,0,1,0,true,q,false,true,0.0-2.0-0.52-0.472-3.472,0,0,1,81,false,stim,false,2,667.7000000476837,3,0,1,96048,WMM2,1099172,false,false,1498,image-keyboard-response,24
true,13,2,1,2,true,d,false,true,0.0-2.0-0.52-0.473-3.473,0,0,1,68,false,stim,false,0,756.2999999523163,3,1,0,96048,WMM2,1101459,false,false,1501,image-keyboard-response,25
true,13,1,1,1,true,z,false,true,0.0-2.0-0.52-0.474-3.474,0,0,1,90,false,stim,false,1,563.5,3,1,2,96048,WMM2,1103533,false,false,1504,image-keyboard-response,26
true,13,1,1,1,true,z,false,true,0.0-2.0-0.52-0.475-3.475,0,0,1,90,false,stim,false,1,1178.3999999761581,3,1,2,96048,WMM2,1106221,false,false,1507,image-keyboard-response,27
true,13,1,1,1,true,z,false,false,0.0-2.0-0.52-0.476-3.476,0,0,1,90,false,stim,false,1,607.3999999761581,3,1,2,96048,WMM2,1108347,false,true,1510,image-keyboard-response,28
true,13,1,1,1,true,z,false,true,0.0-2.0-0.53-0.477-3.477,0,0,1,90,false,stim,false,1,443.1999999284744,3,1,2,96048,WMM2,1110302,false,false,1513,image-keyboard-response,29
true,13,0,1,0,true,q,false,true,0.0-2.0-0.53-0.478-3.478,0,0,1,81,false,stim,false,2,751.3999999761581,3,0,1,96048,WMM2,1112565,false,false,1516,image-keyboard-response,30
true,13,2,1,2,true,d,false,true,0.0-2.0-0.53-0.479-3.479,0,0,1,68,false,stim,false,0,517.8000000715256,3,1,0,96048,WMM2,1114594,false,false,1519,image-keyboard-response,31
true,14,0,0,0,true,q,false,false,0.0-2.0-0.53-0.480-3.480,1,0,1,81,true,stim,false,0,1134.7000000476837,3,0,1,96048,WMM2,1237674,false,true,1642,image-keyboard-response,1
true,14,0,0,1,false,z,true,false,0.0-2.0-0.53-0.481-3.481,1,0,1,81,false,stim,false,1,1002.5,3,1,2,96048,WMM2,1240188,false,false,1645,image-keyboard-response,2
true,14,1,0,0,false,q,true,false,0.0-2.0-0.53-0.482-3.482,1,0,1,90,false,stim,false,0,671.3999999761581,3,0,1,96048,WMM2,1242372,false,false,1648,image-keyboard-response,3
true,14,2,0,2,true,d,false,true,0.0-2.0-0.53-0.483-3.483,1,0,1,68,false,stim,false,2,1455.1000000238419,3,1,0,96048,WMM2,1245339,false,false,1651,image-keyboard-response,4
true,14,2,0,2,true,d,false,true,0.0-2.0-0.53-0.484-3.484,1,0,1,68,false,stim,false,2,563.8999999761581,3,1,0,96048,WMM2,1247414,false,false,1654,image-keyboard-response,5
true,14,0,0,1,false,z,true,false,0.0-2.0-0.53-0.485-3.485,1,0,1,81,false,stim,false,1,593.1000000238419,3,1,2,96048,WMM2,1249517,false,false,1657,image-keyboard-response,6
true,14,1,0,1,true,z,false,true,0.0-2.0-0.54-0.486-3.486,1,0,1,90,false,stim,false,1,578.1000000238419,3,1,2,96048,WMM2,1251607,false,false,1660,image-keyboard-response,7
true,14,1,0,1,true,z,false,true,0.0-2.0-0.54-0.487-3.487,1,0,1,90,false,stim,false,1,659.7000000476837,3,1,2,96048,WMM2,1253791,false,false,1663,image-keyboard-response,8
true,14,2,0,2,true,d,false,true,0.0-2.0-0.54-0.488-3.488,1,0,1,68,false,stim,false,2,803.6000000238419,3,1,0,96048,WMM2,1256105,false,false,1666,image-keyboard-response,9
true,14,1,0,1,true,z,false,true,0.0-2.0-0.54-0.489-3.489,1,0,1,90,false,stim,false,1,743.4000000953674,3,1,2,96048,WMM2,1258359,false,false,1669,image-keyboard-response,10
true,14,2,0,2,true,d,false,true,0.0-2.0-0.54-0.490-3.490,1,0,1,68,false,stim,false,2,304.60000002384186,3,1,0,96048,WMM2,1260175,false,false,1672,image-keyboard-response,11
true,14,0,0,0,true,q,false,true,0.0-2.0-0.54-0.491-3.491,1,0,1,81,false,stim,false,0,462.89999997615814,3,0,1,96048,WMM2,1262150,false,false,1675,image-keyboard-response,12
true,14,0,0,0,true,q,false,true,0.0-2.0-0.54-0.492-3.492,1,0,1,81,false,stim,false,0,781.3999999761581,3,0,1,96048,WMM2,1264443,false,false,1678,image-keyboard-response,13
true,14,2,0,2,true,d,false,true,0.0-2.0-0.54-0.493-3.493,1,0,1,68,false,stim,false,2,679.1000000238419,3,1,0,96048,WMM2,1266632,false,false,1681,image-keyboard-response,14
true,14,0,0,0,true,q,false,false,0.0-2.0-0.54-0.494-3.494,1,0,1,81,false,stim,false,0,470.8000000715256,3,0,1,96048,WMM2,1268616,false,true,1684,image-keyboard-response,15
true,14,0,0,0,true,q,false,true,0.0-2.0-0.55-0.495-3.495,1,0,1,81,false,stim,false,0,575.6999999284744,3,0,1,96048,WMM2,1270703,false,false,1687,image-keyboard-response,16
true,14,0,0,0,true,q,false,false,0.0-2.0-0.55-0.496-3.496,1,0,1,81,false,stim,false,0,488.09999990463257,3,0,1,96048,WMM2,1272703,false,true,1690,image-keyboard-response,17
true,14,1,0,1,true,z,false,true,0.0-2.0-0.55-0.497-3.497,1,0,1,90,false,stim,false,1,618.6000000238419,3,1,2,96048,WMM2,1274843,false,false,1693,image-keyboard-response,18
true,14,1,0,1,true,z,false,true,0.0-2.0-0.55-0.498-3.498,1,0,1,90,false,stim,false,1,571.3999999761581,3,1,2,96048,WMM2,1276927,false,false,1696,image-keyboard-response,19
true,14,1,0,1,true,z,false,true,0.0-2.0-0.55-0.499-3.499,1,0,1,90,false,stim,false,1,610.3999999761581,3,1,2,96048,WMM2,1279048,false,false,1699,image-keyboard-response,20
true,14,2,0,2,true,d,false,true,0.0-2.0-0.55-0.500-3.500,1,0,1,68,false,stim,false,2,428.7000000476837,3,0,0,96048,WMM2,1281015,false,false,1702,image-keyboard-response,21
true,14,2,0,2,true,d,false,true,0.0-2.0-0.55-0.501-3.501,1,0,1,68,false,stim,false,2,705.8999999761581,3,0,0,96048,WMM2,1283233,false,false,1705,image-keyboard-response,22
true,14,2,0,2,true,d,false,true,0.0-2.0-0.55-0.502-3.502,1,0,1,68,false,stim,false,2,616.0999999046326,3,0,0,96048,WMM2,1285362,false,false,1708,image-keyboard-response,23
true,14,0,0,0,true,q,false,true,0.0-2.0-0.55-0.503-3.503,1,0,1,81,false,stim,false,0,626.6000000238419,3,1,1,96048,WMM2,1287507,false,false,1711,image-keyboard-response,24
true,14,1,0,1,true,z,false,true,0.0-2.0-0.56-0.504-3.504,1,0,1,90,false,stim,false,1,469.09999990463257,3,1,2,96048,WMM2,1289488,false,false,1714,image-keyboard-response,25
true,14,0,0,0,true,q,false,true,0.0-2.0-0.56-0.505-3.505,1,0,1,81,false,stim,false,0,654.0,3,1,1,96048,WMM2,1291655,false,false,1717,image-keyboard-response,26
true,14,2,0,2,true,d,false,true,0.0-2.0-0.56-0.506-3.506,1,0,1,68,false,stim,false,2,496.7999999523163,3,0,0,96048,WMM2,1293663,false,false,1720,image-keyboard-response,27
true,14,2,0,2,true,d,false,true,0.0-2.0-0.56-0.507-3.507,1,0,1,68,false,stim,false,2,604.6000000238419,3,0,0,96048,WMM2,1295778,false,false,1723,image-keyboard-response,28
true,14,2,0,2,true,d,false,true,0.0-2.0-0.56-0.508-3.508,1,0,1,68,false,stim,false,2,594.6999999284744,3,0,0,96048,WMM2,1297885,false,false,1726,image-keyboard-response,29
true,14,0,0,0,true,q,false,true,0.0-2.0-0.56-0.509-3.509,1,0,1,81,false,stim,false,0,610.1000000238419,3,1,1,96048,WMM2,1300006,false,false,1729,image-keyboard-response,30
true,15,2,4,0,false,q,true,false,0.0-2.0-0.56-0.510-3.510,0,1,1,68,true,stim,false,0,208.60000002384186,3,1,1,96048,WMM2,1301729,false,false,1732,image-keyboard-response,1
true,15,1,4,1,true,z,false,true,0.0-2.0-0.56-0.511-3.511,0,1,1,90,false,stim,false,1,792.8000000715256,3,1,2,96048,WMM2,1304033,false,false,1735,image-keyboard-response,2
true,15,1,4,1,true,z,false,true,0.0-2.0-0.56-0.512-3.512,0,1,1,90,false,stim,false,1,912.1999999284744,3,1,2,96048,WMM2,1306459,false,false,1738,image-keyboard-response,3
true,15,2,4,2,true,d,false,false,0.0-2.0-0.57-0.513-3.513,0,1,1,68,false,stim,false,2,610.3000000715256,3,0,0,96048,WMM2,1308581,false,true,1741,image-keyboard-response,4
true,15,0,4,0,true,q,false,true,0.0-2.0-0.57-0.514-3.514,0,1,1,81,false,stim,false,0,616.2999999523163,3,1,1,96048,WMM2,1310710,false,false,1744,image-keyboard-response,5
true,15,2,4,2,true,d,false,true,0.0-2.0-0.57-0.515-3.515,0,1,1,68,false,stim,false,2,642.2999999523163,3,0,0,96048,WMM2,1312872,false,false,1747,image-keyboard-response,6
true,15,2,4,2,true,d,false,true,0.0-2.0-0.57-0.516-3.516,0,1,1,68,false,stim,false,2,695.3999999761581,3,0,0,96048,WMM2,1315079,false,false,1750,image-keyboard-response,7
true,15,0,4,0,true,q,false,true,0.0-2.0-0.57-0.517-3.517,0,1,1,81,false,stim,false,0,484.39999997615814,3,1,1,96048,WMM2,1317074,false,false,1753,image-keyboard-response,8
true,15,0,4,0,true,q,false,true,0.0-2.0-0.57-0.518-3.518,0,1,1,81,false,stim,false,0,641.8999999761581,3,1,1,96048,WMM2,1319238,false,false,1756,image-keyboard-response,9
true,15,1,4,1,true,z,false,true,0.0-2.0-0.57-0.519-3.519,0,1,1,90,false,stim,false,1,642.5,3,1,2,96048,WMM2,1321391,false,false,1759,image-keyboard-response,10
true,15,1,4,1,true,z,false,true,0.0-2.0-0.57-0.520-3.520,0,1,1,90,false,stim,false,1,657.0,3,1,2,96048,WMM2,1323560,false,false,1762,image-keyboard-response,11
true,15,1,4,1,true,z,false,true,0.0-2.0-0.57-0.521-3.521,0,1,1,90,false,stim,false,1,618.7999999523163,3,1,2,96048,WMM2,1325690,false,false,1765,image-keyboard-response,12
true,15,1,4,1,true,z,false,false,0.0-2.0-0.58-0.522-3.522,0,1,1,90,false,stim,false,1,519.1000000238419,3,1,2,96048,WMM2,1327721,false,true,1768,image-keyboard-response,13
true,15,2,4,2,true,d,false,true,0.0-2.0-0.58-0.523-3.523,0,1,1,68,false,stim,false,2,572.2999999523163,3,0,0,96048,WMM2,1329816,false,false,1771,image-keyboard-response,14
true,15,2,4,2,true,d,false,true,0.0-2.0-0.58-0.524-3.524,0,1,1,68,false,stim,false,2,442.3000000715256,3,0,0,96048,WMM2,1331770,false,false,1774,image-keyboard-response,15
true,15,0,4,0,true,q,false,true,0.0-2.0-0.58-0.525-3.525,0,1,1,81,false,stim,false,0,547.4000000953674,3,1,1,96048,WMM2,1333829,false,false,1777,image-keyboard-response,16
true,15,1,4,1,true,z,false,true,0.0-2.0-0.58-0.526-3.526,0,1,1,90,false,stim,false,1,593.7999999523163,3,1,2,96048,WMM2,1335933,false,false,1780,image-keyboard-response,17
true,15,1,4,1,true,z,false,true,0.0-2.0-0.58-0.527-3.527,0,1,1,90,false,stim,false,1,623.8999999761581,3,1,2,96048,WMM2,1338068,false,false,1783,image-keyboard-response,18
true,15,0,4,0,true,q,false,true,0.0-2.0-0.58-0.528-3.528,0,1,1,81,false,stim,false,0,599.2000000476837,3,1,1,96048,WMM2,1340179,false,false,1786,image-keyboard-response,19
true,15,2,4,2,true,d,false,false,0.0-2.0-0.58-0.529-3.529,0,1,1,68,false,stim,false,2,733.5,3,0,0,96048,WMM2,1342424,false,true,1789,image-keyboard-response,20
true,15,0,4,0,true,q,false,false,0.0-2.0-0.58-0.530-3.530,0,1,1,81,false,stim,false,0,610.7000000476837,3,1,1,96048,WMM2,1344551,false,true,1792,image-keyboard-response,21
true,15,2,4,2,true,d,false,true,0.0-2.0-0.59-0.531-3.531,0,1,1,68,false,stim,false,2,705.2999999523163,3,1,0,96048,WMM2,1346769,false,false,1795,image-keyboard-response,22
true,15,0,4,0,true,q,false,true,0.0-2.0-0.59-0.532-3.532,0,1,1,81,false,stim,false,0,536.6000000238419,3,1,1,96048,WMM2,1348825,false,false,1798,image-keyboard-response,23
true,15,2,4,2,true,d,false,true,0.0-2.0-0.59-0.533-3.533,0,1,1,68,false,stim,false,2,670.8000000715256,3,1,0,96048,WMM2,1351031,false,false,1801,image-keyboard-response,24
true,15,1,4,1,true,z,false,true,0.0-2.0-0.59-0.534-3.534,0,1,1,90,false,stim,false,1,650.7000000476837,3,0,2,96048,WMM2,1353208,false,false,1804,image-keyboard-response,25
true,15,2,4,2,true,d,false,false,0.0-2.0-0.59-0.535-3.535,0,1,1,68,false,stim,false,2,720.3000000715256,3,1,0,96048,WMM2,1355440,false,true,1807,image-keyboard-response,26
true,15,0,4,0,true,q,false,true,0.0-2.0-0.59-0.536-3.536,0,1,1,81,false,stim,false,0,655.6999999284744,3,1,1,96048,WMM2,1357608,false,false,1810,image-keyboard-response,27
true,15,0,4,0,true,q,false,true,0.0-2.0-0.59-0.537-3.537,0,1,1,81,false,stim,false,0,635.8999999761581,3,1,1,96048,WMM2,1359756,false,false,1813,image-keyboard-response,28
true,15,1,4,1,true,z,false,true,0.0-2.0-0.59-0.538-3.538,0,1,1,90,false,stim,false,1,878.5,3,0,2,96048,WMM2,1362147,false,false,1816,image-keyboard-response,29
true,15,1,4,1,true,z,false,true,0.0-2.0-0.59-0.539-3.539,0,1,1,90,false,stim,false,1,705.0999999046326,3,0,2,96048,WMM2,1364364,false,false,1819,image-keyboard-response,30
true,16,2,2,2,true,d,false,true,0.0-2.0-0.60-0.540-3.540,1,1,0,68,true,stim,false,2,565.1000000238419,3,1,0,96048,WMM2,1366442,false,false,1822,image-keyboard-response,1
true,16,1,2,0,false,q,false,false,0.0-2.0-0.60-0.541-3.541,1,1,0,90,false,stim,true,1,824.0,3,0,2,96048,WMM2,1368788,false,false,1825,image-keyboard-response,2
true,16,0,2,0,true,q,false,true,0.0-2.0-0.60-0.542-3.542,1,1,0,81,false,stim,false,0,725.6000000238419,3,1,1,96048,WMM2,1371025,false,false,1828,image-keyboard-response,3
true,16,0,2,0,true,q,false,true,0.0-2.0-0.60-0.543-3.543,1,1,0,81,false,stim,false,0,686.2000000476837,3,1,1,96048,WMM2,1373222,false,false,1831,image-keyboard-response,4
true,16,2,2,2,true,d,false,false,0.0-2.0-0.60-0.544-3.544,1,1,0,68,false,stim,false,2,675.1000000238419,3,1,0,96048,WMM2,1375410,false,true,1834,image-keyboard-response,5
true,16,1,2,0,false,q,false,false,0.0-2.0-0.60-0.545-3.545,1,1,0,90,false,stim,true,1,1387.5,3,0,2,96048,WMM2,1378308,false,false,1837,image-keyboard-response,6
true,16,1,2,0,false,q,false,true,0.0-2.0-0.60-0.546-3.546,1,1,0,90,false,stim,true,1,623.2000000476837,3,0,2,96048,WMM2,1380442,false,true,1840,image-keyboard-response,7
true,16,0,2,0,true,q,false,true,0.0-2.0-0.60-0.547-3.547,1,1,0,81,false,stim,false,0,803.2000000476837,3,1,1,96048,WMM2,1382757,false,false,1843,image-keyboard-response,8
true,16,2,2,2,true,d,false,true,0.0-2.0-0.60-0.548-3.548,1,1,0,68,false,stim,false,2,389.1999999284744,3,1,0,96048,WMM2,1384658,false,false,1846,image-keyboard-response,9
true,16,1,2,0,false,q,false,false,0.0-2.0-0.61-0.549-3.549,1,1,0,90,false,stim,true,1,678.2999999523163,3,0,2,96048,WMM2,1386847,false,false,1849,image-keyboard-response,10
true,16,1,2,0,false,q,false,false,0.0-2.0-0.61-0.550-3.550,1,1,0,90,false,stim,true,1,530.8999999761581,3,0,2,96048,WMM2,1388889,false,false,1852,image-keyboard-response,11
true,16,2,2,2,true,d,false,true,0.0-2.0-0.61-0.551-3.551,1,1,0,68,false,stim,false,2,741.2999999523163,3,1,0,96048,WMM2,1391144,false,false,1855,image-keyboard-response,12
true,16,2,2,2,true,d,false,true,0.0-2.0-0.61-0.552-3.552,1,1,0,68,false,stim,false,2,660.2000000476837,3,1,0,96048,WMM2,1393316,false,false,1858,image-keyboard-response,13
true,16,2,2,2,true,d,false,true,0.0-2.0-0.61-0.553-3.553,1,1,0,68,false,stim,false,2,692.6000000238419,3,1,0,96048,WMM2,1395521,false,false,1861,image-keyboard-response,14
true,16,0,2,0,true,q,false,false,0.0-2.0-0.61-0.554-3.554,1,1,0,81,false,stim,false,0,620.7999999523163,3,1,1,96048,WMM2,1397654,false,true,1864,image-keyboard-response,15
true,16,0,2,0,true,q,false,true,0.0-2.0-0.61-0.555-3.555,1,1,0,81,false,stim,false,0,584.7000000476837,3,1,1,96048,WMM2,1399751,false,false,1867,image-keyboard-response,16
true,16,0,2,0,true,q,false,true,0.0-2.0-0.61-0.556-3.556,1,1,0,81,false,stim,false,0,722.1000000238419,3,1,1,96048,WMM2,1401984,false,false,1870,image-keyboard-response,17
true,16,1,2,0,false,q,false,false,0.0-2.0-0.61-0.557-3.557,1,1,0,90,false,stim,true,1,403.2000000476837,3,0,2,96048,WMM2,1403898,false,false,1873,image-keyboard-response,18
true,16,0,2,0,true,q,false,true,0.0-2.0-0.62-0.558-3.558,1,1,0,81,false,stim,false,0,525.2999999523163,3,1,1,96048,WMM2,1405936,false,false,1876,image-keyboard-response,19
true,16,0,2,0,true,q,false,true,0.0-2.0-0.62-0.559-3.559,1,1,0,81,false,stim,false,1,416.5,3,0,2,96048,WMM2,1407864,false,false,1879,image-keyboard-response,20
true,16,0,2,0,true,q,false,false,0.0-2.0-0.62-0.560-3.560,1,1,0,81,false,stim,false,0,569.1000000238419,3,1,1,96048,WMM2,1409952,false,true,1882,image-keyboard-response,21
true,16,2,2,2,true,d,false,true,0.0-2.0-0.62-0.561-3.561,1,1,0,68,false,stim,false,2,626.6999999284744,3,1,0,96048,WMM2,1412095,false,false,1885,image-keyboard-response,22
true,16,0,2,0,true,q,false,true,0.0-2.0-0.62-0.562-3.562,1,1,0,81,false,stim,false,1,585.8999999761581,3,0,2,96048,WMM2,1414197,false,false,1888,image-keyboard-response,23
true,16,0,2,0,true,q,false,true,0.0-2.0-0.62-0.563-3.563,1,1,0,81,false,stim,false,1,588.2000000476837,3,1,2,96048,WMM2,1416301,false,false,1891,image-keyboard-response,24
true,16,2,2,2,true,d,false,true,0.0-2.0-0.62-0.564-3.564,1,1,0,68,false,stim,false,2,827.7999999523163,3,0,0,96048,WMM2,1418642,false,false,1894,image-keyboard-response,25
true,16,2,2,2,true,d,false,true,0.0-2.0-0.62-0.565-3.565,1,1,0,68,false,stim,false,2,928.8999999761581,3,0,0,96048,WMM2,1421089,false,false,1897,image-keyboard-response,26
true,16,0,2,0,true,q,false,false,0.0-2.0-0.62-0.566-3.566,1,1,0,81,false,stim,false,0,629.8999999761581,3,0,1,96048,WMM2,1423233,false,true,1900,image-keyboard-response,27
true,16,0,2,0,true,q,false,true,0.0-2.0-0.63-0.567-3.567,1,1,0,81,false,stim,false,1,726.6000000238419,3,1,2,96048,WMM2,1425493,false,false,1903,image-keyboard-response,28
true,16,0,2,0,true,q,false,false,0.0-2.0-0.63-0.568-3.568,1,1,0,81,false,stim,false,1,634.3999999761581,3,1,2,96048,WMM2,1427639,false,true,1906,image-keyboard-response,29
true,16,2,2,2,true,d,false,true,0.0-2.0-0.63-0.569-3.569,1,1,0,68,false,stim,false,2,719.3999999761581,3,0,0,96048,WMM2,1429871,false,false,1909,image-keyboard-response,30
true,16,0,2,0,true,q,false,true,0.0-2.0-0.63-0.570-3.570,1,1,0,81,false,stim,false,0,857.8000000715256,3,0,1,96048,WMM2,1432240,false,false,1912,image-keyboard-response,31
true,16,0,2,0,true,q,false,true,0.0-2.0-0.63-0.571-3.571,1,1,0,81,false,stim,false,0,632.7000000476837,3,0,1,96048,WMM2,1434386,false,false,1915,image-keyboard-response,32
true,16,2,2,2,true,d,false,true,0.0-2.0-0.63-0.572-3.572,1,1,0,68,false,stim,false,2,481.0,3,0,0,96048,WMM2,1436379,false,false,1918,image-keyboard-response,33
true,17,0,1,0,true,q,false,true,0.0-2.0-0.63-0.573-3.573,0,0,1,81,true,stim,false,0,1455.3999999761581,3,1,2,96048,WMM2,1439347,false,false,1921,image-keyboard-response,1
true,17,2,1,1,false,z,false,false,0.0-2.0-0.63-0.574-3.574,0,0,1,68,false,stim,true,2,586.3999999761581,3,0,0,96048,WMM2,1441446,false,false,1924,image-keyboard-response,2
true,17,0,1,2,false,d,false,false,0.0-2.0-0.63-0.575-3.575,0,0,1,81,false,stim,true,0,691.8999999761581,3,0,1,96048,WMM2,1443651,false,false,1927,image-keyboard-response,3
true,17,0,1,2,false,d,false,false,0.0-2.0-0.64-0.576-3.576,0,0,1,81,false,stim,true,0,525.5,3,0,1,96048,WMM2,1445689,false,false,1930,image-keyboard-response,4
true,17,0,1,0,true,q,false,true,0.0-2.0-0.64-0.577-3.577,0,0,1,81,false,stim,false,0,966.2000000476837,3,1,2,96048,WMM2,1448168,false,false,1933,image-keyboard-response,5
true,17,1,1,2,false,d,true,false,0.0-2.0-0.64-0.578-3.578,0,0,1,90,false,stim,false,0,938.5,3,0,1,96048,WMM2,1450618,false,false,1936,image-keyboard-response,6
true,17,2,1,1,false,z,false,false,0.0-2.0-0.64-0.579-3.579,0,0,1,68,false,stim,true,2,650.8999999761581,3,0,0,96048,WMM2,1452783,false,false,1939,image-keyboard-response,7
true,17,0,1,2,false,d,false,false,0.0-2.0-0.64-0.580-3.580,0,0,1,81,false,stim,true,0,969.1000000238419,3,0,1,96048,WMM2,1455264,false,false,1942,image-keyboard-response,8
true,17,0,1,0,true,q,false,true,0.0-2.0-0.64-0.581-3.581,0,0,1,81,false,stim,false,0,496.10000002384186,3,1,2,96048,WMM2,1457273,false,false,1945,image-keyboard-response,9
true,17,2,1,1,false,z,false,false,0.0-2.0-0.64-0.582-3.582,0,0,1,68,false,stim,true,2,797.6000000238419,3,0,0,96048,WMM2,1459582,false,false,1948,image-keyboard-response,10
true,17,1,1,1,true,z,false,true,0.0-2.0-0.64-0.583-3.583,0,0,1,90,false,stim,false,2,488.0,3,0,0,96048,WMM2,1461583,false,false,1951,image-keyboard-response,11
true,17,0,1,0,true,q,false,true,0.0-2.0-0.64-0.584-3.584,0,0,1,81,false,stim,false,0,738.2000000476837,3,1,2,96048,WMM2,1463835,false,false,1954,image-keyboard-response,12
true,17,0,1,0,true,q,false,true,0.0-2.0-0.65-0.585-3.585,0,0,1,81,false,stim,false,0,616.8999999761581,3,1,2,96048,WMM2,1465963,false,false,1957,image-keyboard-response,13
true,17,1,1,1,true,z,false,true,0.0-2.0-0.65-0.586-3.586,0,0,1,90,false,stim,false,2,813.8000000715256,3,0,0,96048,WMM2,1468290,false,false,1960,image-keyboard-response,14
true,17,1,1,1,true,z,false,true,0.0-2.0-0.65-0.587-3.587,0,0,1,90,false,stim,false,2,796.0,3,0,0,96048,WMM2,1470598,false,false,1963,image-keyboard-response,15
true,17,1,1,2,false,d,true,true,0.0-2.0-0.65-0.588-3.588,0,0,1,90,false,stim,false,0,583.0999999046326,3,0,1,96048,WMM2,1472692,false,true,1966,image-keyboard-response,16
true,17,1,1,1,true,z,false,true,0.0-2.0-0.65-0.589-3.589,0,0,1,90,false,stim,false,2,805.8999999761581,3,0,0,96048,WMM2,1475011,false,false,1969,image-keyboard-response,17
true,17,1,1,2,false,d,true,false,0.0-2.0-0.65-0.590-3.590,0,0,1,90,false,stim,false,0,802.6999999284744,3,0,1,96048,WMM2,1477336,false,false,1972,image-keyboard-response,18
true,17,0,1,0,true,q,false,true,0.0-2.0-0.65-0.591-3.591,0,0,1,81,false,stim,false,0,689.3000000715256,3,1,2,96048,WMM2,1479538,false,false,1975,image-keyboard-response,19
true,17,1,1,2,false,d,true,false,0.0-2.0-0.65-0.592-3.592,0,0,1,90,false,stim,false,0,459.0,3,0,1,96048,WMM2,1481511,false,false,1978,image-keyboard-response,20
true,17,0,1,0,true,q,false,true,0.0-2.0-0.65-0.593-3.593,0,0,1,81,false,stim,false,0,792.7999999523163,3,1,2,96048,WMM2,1483823,false,false,1981,image-keyboard-response,21
