answered,blockNum,choice,condition,corResp,correct,correct_response,explo,fb,internal_node_id,isStable_1,isStable_2,isStable_3,key_press,newBlock,part,persev,persevResp,rt,sessNum,stableAS,stimulus,subject,task,time_elapsed,training,trap,trial_index,trial_type,trialsInBlock
true,1,0,0,0,true,q,false,true,0.0-2.0-0.0-0.0-3.0,0,0,0,81,true,stim,false,-1,810.3000000119209,0,0,0,97117,WMM2,188369,false,false,163,image-keyboard-response,1
true,1,0,0,0,true,q,false,true,0.0-2.0-0.0-0.1-3.1,0,0,0,81,false,stim,false,-1,592.8999999761581,0,0,1,97117,WMM2,190469,false,false,166,image-keyboard-response,2
true,1,1,0,2,false,d,true,false,0.0-2.0-0.0-0.2-3.2,0,0,0,90,false,stim,false,-1,670.1000000238419,0,0,2,97117,WMM2,192647,false,false,169,image-keyboard-response,3
true,1,0,0,0,true,q,false,true,0.0-2.0-0.0-0.3-3.3,0,0,0,81,false,stim,false,-1,1178.199999988079,0,0,1,97117,WMM2,195331,false,false,172,image-keyboard-response,4
true,1,0,0,0,true,q,false,false,0.0-2.0-0.0-0.4-3.4,0,0,0,81,false,stim,false,-1,533.3999999761581,0,0,0,97117,WMM2,197369,false,true,175,image-keyboard-response,5
true,1,0,0,0,true,q,false,true,0.0-2.0-0.0-0.5-3.5,0,0,0,81,false,stim,false,-1,420.4000000357628,0,0,1,97117,WMM2,199301,false,false,178,image-keyboard-response,6
true,1,1,0,2,false,d,true,true,0.0-2.0-0.0-0.6-3.6,0,0,0,90,false,stim,false,-1,945.1999999880791,0,0,2,97117,WMM2,201761,false,true,181,image-keyboard-response,7
true,1,2,0,0,false,q,true,false,0.0-2.0-0.0-0.7-3.7,0,0,0,68,false,stim,false,-1,1084.4000000357628,0,0,0,97117,WMM2,204352,false,false,184,image-keyboard-response,8
true,1,1,0,2,false,d,true,false,0.0-2.0-0.0-0.8-3.8,0,0,0,90,false,stim,false,-1,666.6999999880791,0,0,2,97117,WMM2,206524,false,false,187,image-keyboard-response,9
true,1,1,0,0,false,q,true,false,0.0-2.0-0.1-0.9-3.9,0,0,0,90,false,stim,false,-1,1288.4000000357628,0,0,0,97117,WMM2,209318,false,false,190,image-keyboard-response,10
true,1,0,0,2,false,d,true,false,0.0-2.0-0.1-0.10-3.10,0,0,0,81,false,stim,false,-1,704.4000000357628,0,0,2,97117,WMM2,211532,false,false,193,image-keyboard-response,11
true,1,2,0,2,true,d,false,true,0.0-2.0-0.1-0.11-3.11,0,0,0,68,false,stim,false,-1,438.0999999642372,0,0,2,97117,WMM2,213474,false,false,196,image-keyboard-response,12
true,1,1,0,0,false,q,true,false,0.0-2.0-0.1-0.12-3.12,0,0,0,90,false,stim,false,-1,848.3000000119209,0,0,0,97117,WMM2,215827,false,false,199,image-keyboard-response,13
true,1,2,0,0,false,q,true,false,0.0-2.0-0.1-0.13-3.13,0,0,0,68,false,stim,false,-1,378.4000000357628,0,0,0,97117,WMM2,217713,false,false,202,image-keyboard-response,14
true,1,0,0,0,true,q,false,true,0.0-2.0-0.1-0.14-3.14,0,0,0,81,false,stim,false,-1,787.6999999880791,0,0,1,97117,WMM2,220006,false,false,205,image-keyboard-response,15
true,1,0,0,0,true,q,false,true,0.0-2.0-0.1-0.15-3.15,0,0,0,81,false,stim,false,-1,513.0,0,0,1,97117,WMM2,222025,false,false,208,image-keyboard-response,16
true,1,2,0,2,true,d,false,true,0.0-2.0-0.1-0.16-3.16,0,0,0,68,false,stim,false,-1,1347.5,0,0,2,97117,WMM2,224881,false,false,211,image-keyboard-response,17
true,1,0,0,0,true,q,false,true,0.0-2.0-0.1-0.17-3.17,0,0,0,81,false,stim,false,-1,1363.7000000476837,0,0,1,97117,WMM2,227751,false,false,214,image-keyboard-response,18
true,1,0,0,0,true,q,false,false,0.0-2.0-0.2-0.18-3.18,0,0,0,81,false,stim,false,-1,400.69999998807907,0,0,1,97117,WMM2,229656,false,true,217,image-keyboard-response,19
true,1,1,0,0,false,q,true,false,0.0-2.0-0.2-0.19-3.19,0,0,0,90,false,stim,false,-1,1162.4000000357628,0,0,1,97117,WMM2,232324,false,false,220,image-keyboard-response,20
true,1,0,0,0,true,q,false,true,0.0-2.0-0.2-0.20-3.20,0,0,0,81,false,stim,false,-1,761.8999999761581,0,0,0,97117,WMM2,234593,false,false,223,image-keyboard-response,21
true,1,0,0,0,true,q,false,true,0.0-2.0-0.2-0.21-3.21,0,0,0,81,false,stim,false,-1,667.3999999761581,0,0,0,97117,WMM2,236768,false,false,226,image-keyboard-response,22
true,1,2,0,2,true,d,false,true,0.0-2.0-0.2-0.22-3.22,0,0,0,68,false,stim,false,-1,516.0999999642372,0,0,2,97117,WMM2,238790,false,false,229,image-keyboard-response,23
true,1,2,0,2,true,d,false,true,0.0-2.0-0.2-0.23-3.23,0,0,0,68,false,stim,false,-1,572.8999999761581,0,0,2,97117,WMM2,240869,false,false,232,image-keyboard-response,24
true,1,1,0,0,false,q,true,false,0.0-2.0-0.2-0.24-3.24,0,0,0,90,false,stim,false,-1,1611.4000000357628,0,0,1,97117,WMM2,243987,false,false,235,image-keyboard-response,25
true,1,2,0,2,true,d,false,true,0.0-2.0-0.2-0.25-3.25,0,0,0,68,false,stim,false,-1,638.1999999880791,0,0,2,97117,WMM2,246142,false,false,238,image-keyboard-response,26
true,1,0,0,0,true,q,false,true,0.0-2.0-0.2-0.26-3.26,0,0,0,81,false,stim,false,-1,877.5,0,0,0,97117,WMM2,248524,false,false,241,image-keyboard-response,27
true,1,0,0,0,true,q,false,true,0.0-2.0-0.3-0.27-3.27,0,0,0,81,false,stim,false,-1,496.30000001192093,0,0,0,97117,WMM2,250527,false,false,244,image-keyboard-response,28
true,1,2,0,2,true,d,false,true,0.0-2.0-0.3-0.28-3.28,0,0,0,68,false,stim,false,-1,554.2999999523163,0,0,2,97117,WMM2,252587,false,false,247,image-keyboard-response,29
true,1,0,0,0,true,q,false,true,0.0-2.0-0.3-0.29-3.29,0,0,0,81,false,stim,false,-1,1000.8000000119209,0,0,1,97117,WMM2,255105,false,false,250,image-keyboard-response,30
true,1,0,0,0,true,q,false,false,0.0-2.0-0.3-0.30-3.30,0,0,0,81,false,stim,false,-1,399.5999999642372,0,0,1,97117,WMM2,257012,false,true,253,image-keyboard-response,31
true,1,2,0,2,true,d,false,true,0.0-2.0-0.3-0.31-3.31,0,0,0,68,false,stim,false,-1,784.3999999761581,0,0,2,97117,WMM2,259305,false,false,256,image-keyboard-response,32
true,1,2,0,2,true,d,false,true,0.0-2.0-0.3-0.32-3.32,0,0,0,68,false,stim,false,-1,671.3000000119209,0,0,2,97117,WMM2,261482,false,false,259,image-keyboard-response,33
true,1,1,0,0,false,q,true,true,0.0-2.0-0.3-0.33-3.33,0,0,0,90,false,stim,false,-1,1567.8999999761581,0,1,1,97117,WMM2,264555,false,true,262,image-keyboard-response,34
true,1,0,0,0,true,q,false,true,0.0-2.0-0.3-0.34-3.34,0,0,0,81,false,stim,false,-1,706.2999999523163,0,1,0,97117,WMM2,266767,false,false,265,image-keyboard-response,35
true,1,0,0,0,true,q,false,true,0.0-2.0-0.3-0.35-3.35,0,0,0,81,false,stim,false,-1,554.5,0,1,0,97117,WMM2,268843,false,false,268,image-keyboard-response,36
true,1,1,0,0,false,q,true,false,0.0-2.0-0.4-0.36-3.36,0,0,0,90,false,stim,false,-1,937.5999999642372,0,1,1,97117,WMM2,271287,false,false,271,image-keyboard-response,37
true,1,2,0,0,false,q,true,false,0.0-2.0-0.4-0.37-3.37,0,0,0,68,false,stim,false,-1,535.6000000238419,0,1,1,97117,WMM2,273327,false,false,274,image-keyboard-response,38
true,1,0,0,0,true,q,false,true,0.0-2.0-0.4-0.38-3.38,0,0,0,81,false,stim,false,-1,1066.1000000238419,0,1,0,97117,WMM2,275899,false,false,277,image-keyboard-response,39
true,1,2,0,2,true,d,false,true,0.0-2.0-0.4-0.39-3.39,0,0,0,68,false,stim,false,-1,607.5,0,0,2,97117,WMM2,278013,false,false,280,image-keyboard-response,40
true,1,0,0,0,true,q,false,false,0.0-2.0-0.4-0.40-3.40,0,0,0,81,false,stim,false,-1,406.39999997615814,0,1,1,97117,WMM2,279925,false,true,283,image-keyboard-response,41
true,2,0,4,0,true,q,false,true,0.0-2.0-0.4-0.41-3.41,1,1,0,81,true,stim,false,0,631.8000000119209,0,1,0,97117,WMM2,282063,false,false,286,image-keyboard-response,1
true,2,2,4,2,true,d,false,true,0.0-2.0-0.4-0.42-3.42,1,1,0,68,false,stim,false,2,576.5,0,0,2,97117,WMM2,284146,false,false,289,image-keyboard-response,2
true,2,1,4,0,false,q,true,false,0.0-2.0-0.4-0.43-3.43,1,1,0,90,false,stim,false,0,861.5,0,1,0,97117,WMM2,286512,false,false,292,image-keyboard-response,3
true,2,2,4,2,true,d,false,true,0.0-2.0-0.4-0.44-3.44,1,1,0,68,false,stim,false,2,894.1999999880791,0,0,2,97117,WMM2,288912,false,false,295,image-keyboard-response,4
true,2,1,4,0,false,q,true,false,0.0-2.0-0.5-0.45-3.45,1,1,0,90,false,stim,false,0,1811.0,0,1,1,97117,WMM2,292230,false,false,298,image-keyboard-response,5
true,2,2,4,2,true,d,false,true,0.0-2.0-0.5-0.46-3.46,1,1,0,68,false,stim,false,2,568.5,0,0,2,97117,WMM2,294308,false,false,301,image-keyboard-response,6
true,2,0,4,0,true,q,false,false,0.0-2.0-0.5-0.47-3.47,1,1,0,81,false,stim,false,0,544.7000000476837,0,1,0,97117,WMM2,296369,false,true,304,image-keyboard-response,7
true,2,2,4,0,false,q,true,false,0.0-2.0-0.5-0.48-3.48,1,1,0,68,false,stim,false,0,1348.4000000357628,0,1,1,97117,WMM2,299224,false,false,307,image-keyboard-response,8
true,2,1,4,0,false,q,true,true,0.0-2.0-0.5-0.49-3.49,1,1,0,90,false,stim,false,0,1044.4000000357628,0,1,0,97117,WMM2,301774,false,true,310,image-keyboard-response,9
true,2,1,4,0,false,q,true,false,0.0-2.0-0.5-0.50-3.50,1,1,0,90,false,stim,false,0,419.5,0,1,0,97117,WMM2,303700,false,false,313,image-keyboard-response,10
true,2,2,4,2,true,d,false,true,0.0-2.0-0.5-0.51-3.51,1,1,0,68,false,stim,false,2,503.2999999523163,0,0,2,97117,WMM2,305709,false,false,316,image-keyboard-response,11
true,2,1,4,0,false,q,true,false,0.0-2.0-0.5-0.52-3.52,1,1,0,90,false,stim,false,0,1271.2999999523163,0,1,1,97117,WMM2,308486,false,false,319,image-keyboard-response,12
true,2,2,4,2,true,d,false,false,0.0-2.0-0.5-0.53-3.53,1,1,0,68,false,stim,false,2,512.7999999523163,0,0,2,97117,WMM2,310507,false,true,322,image-keyboard-response,13
true,2,1,4,2,false,d,true,false,0.0-2.0-0.6-0.54-3.54,1,1,0,90,false,stim,false,2,667.1999999880791,0,0,2,97117,WMM2,312681,false,false,325,image-keyboard-response,14
true,2,1,4,0,false,q,true,true,0.0-2.0-0.6-0.55-3.55,1,1,0,90,false,stim,false,0,1350.5,0,1,1,97117,WMM2,315537,false,true,328,image-keyboard-response,15
true,2,1,4,0,false,q,true,false,0.0-2.0-0.6-0.56-3.56,1,1,0,90,false,stim,false,0,1005.6000000238419,0,1,0,97117,WMM2,318051,false,false,331,image-keyboard-response,16
true,2,0,4,2,false,d,true,false,0.0-2.0-0.6-0.57-3.57,1,1,0,81,false,stim,false,2,760.1000000238419,0,0,2,97117,WMM2,320317,false,false,334,image-keyboard-response,17
true,2,2,4,0,false,q,true,false,0.0-2.0-0.6-0.58-3.58,1,1,0,68,false,stim,false,0,1159.699999988079,0,1,0,97117,WMM2,322981,false,false,337,image-keyboard-response,18
true,2,2,4,0,false,q,true,true,0.0-2.0-0.6-0.59-3.59,1,1,0,68,false,stim,false,0,683.1000000238419,0,1,1,97117,WMM2,325174,false,true,340,image-keyboard-response,19
true,2,1,4,0,false,q,true,false,0.0-2.0-0.6-0.60-3.60,1,1,0,90,false,stim,false,0,552.1999999880791,0,1,0,97117,WMM2,327231,false,false,343,image-keyboard-response,20
true,2,2,4,0,false,q,true,false,0.0-2.0-0.6-0.61-3.61,1,1,0,68,false,stim,false,0,717.0999999642372,0,1,1,97117,WMM2,329455,false,false,346,image-keyboard-response,21
true,2,0,4,2,false,d,true,false,0.0-2.0-0.6-0.62-3.62,1,1,0,81,false,stim,false,2,1114.6000000238419,0,0,2,97117,WMM2,332074,false,false,349,image-keyboard-response,22
true,2,1,4,2,false,d,true,false,0.0-2.0-0.7-0.63-3.63,1,1,0,90,false,stim,false,2,493.5,0,0,2,97117,WMM2,334075,false,false,352,image-keyboard-response,23
true,2,1,4,0,false,q,true,false,0.0-2.0-0.7-0.64-3.64,1,1,0,90,false,stim,false,0,2286.100000023842,0,1,1,97117,WMM2,337868,false,false,355,image-keyboard-response,24
true,2,2,4,0,false,q,true,false,0.0-2.0-0.7-0.65-3.65,1,1,0,68,false,stim,false,0,366.5999999642372,0,1,1,97117,WMM2,339758,false,false,358,image-keyboard-response,25
true,2,0,4,0,true,q,false,true,0.0-2.0-0.7-0.66-3.66,1,1,0,81,false,stim,false,0,459.5,0,1,1,97117,WMM2,341725,false,false,361,image-keyboard-response,26
true,2,1,4,0,false,q,true,true,0.0-2.0-0.7-0.67-3.67,1,1,0,90,false,stim,false,0,1968.6000000238419,0,1,0,97117,WMM2,345200,false,true,364,image-keyboard-response,27
true,2,2,4,2,true,d,false,true,0.0-2.0-0.7-0.68-3.68,1,1,0,68,false,stim,false,2,797.3999999761581,0,0,2,97117,WMM2,347505,false,false,367,image-keyboard-response,28
true,2,1,4,0,false,q,true,false,0.0-2.0-0.7-0.69-3.69,1,1,0,90,false,stim,false,0,1571.1000000238419,0,1,0,97117,WMM2,350582,false,false,370,image-keyboard-response,29
true,2,2,4,2,true,d,false,true,0.0-2.0-0.7-0.70-3.70,1,1,0,68,false,stim,false,2,1284.0,0,0,2,97117,WMM2,353374,false,false,373,image-keyboard-response,30
true,2,0,4,0,true,q,false,false,0.0-2.0-0.7-0.71-3.71,1,1,0,81,false,stim,false,0,564.7999999523163,0,1,0,97117,WMM2,355450,false,true,376,image-keyboard-response,31
true,2,2,4,2,true,d,false,true,0.0-2.0-0.8-0.72-3.72,1,1,0,68,false,stim,false,2,606.8000000119209,0,0,2,97117,WMM2,357568,false,false,379,image-keyboard-response,32
true,2,1,4,0,false,q,true,true,0.0-2.0-0.8-0.73-3.73,1,1,0,90,false,stim,false,0,592.3000000119209,0,1,1,97117,WMM2,359668,false,true,382,image-keyboard-response,33
true,2,2,4,2,true,d,false,true,0.0-2.0-0.8-0.74-3.74,1,1,0,68,false,stim,false,2,695.3000000119209,0,0,2,97117,WMM2,361870,false,false,385,image-keyboard-response,34
true,2,2,4,2,true,d,false,true,0.0-2.0-0.8-0.75-3.75,1,1,0,68,false,stim,false,2,647.0,0,0,2,97117,WMM2,364025,false,false,388,image-keyboard-response,35
true,2,0,4,0,true,q,false,true,0.0-2.0-0.8-0.76-3.76,1,1,0,81,false,stim,false,0,698.1000000238419,0,1,0,97117,WMM2,366237,false,false,391,image-keyboard-response,36
true,2,1,4,0,false,q,true,false,0.0-2.0-0.8-0.77-3.77,1,1,0,90,false,stim,false,0,1173.3999999761581,0,1,1,97117,WMM2,368918,false,false,394,image-keyboard-response,37
true,2,2,4,0,false,q,true,false,0.0-2.0-0.8-0.78-3.78,1,1,0,68,false,stim,false,0,1047.6000000238419,0,1,1,97117,WMM2,371486,false,false,397,image-keyboard-response,38
true,2,0,4,0,true,q,false,true,0.0-2.0-0.8-0.79-3.79,1,1,0,81,false,stim,false,0,912.8999999761581,0,1,0,97117,WMM2,373908,false,false,400,image-keyboard-response,39
true,2,0,4,0,true,q,false,true,0.0-2.0-0.8-0.80-3.80,1,1,0,81,false,stim,false,0,489.30000001192093,0,1,0,97117,WMM2,375907,false,false,403,image-keyboard-response,40
true,2,1,4,0,false,q,true,false,0.0-2.0-0.9-0.81-3.81,1,1,0,90,false,stim,false,0,880.1999999880791,0,1,1,97117,WMM2,378293,false,false,406,image-keyboard-response,41
true,2,2,4,2,true,d,false,true,0.0-2.0-0.9-0.82-3.82,1,1,0,68,false,stim,false,2,625.0,0,0,2,97117,WMM2,380424,false,false,409,image-keyboard-response,42
true,2,0,4,0,true,q,false,true,0.0-2.0-0.9-0.83-3.83,1,1,0,81,false,stim,false,0,403.2000000476837,0,1,0,97117,WMM2,382337,false,false,412,image-keyboard-response,43
true,2,2,4,2,true,d,false,false,0.0-2.0-0.9-0.84-3.84,1,1,0,68,false,stim,false,2,587.8000000119209,0,0,2,97117,WMM2,384437,false,true,415,image-keyboard-response,44
true,2,0,4,0,true,q,false,false,0.0-2.0-0.9-0.85-3.85,1,1,0,81,false,stim,false,0,732.5,0,1,1,97117,WMM2,386674,false,true,418,image-keyboard-response,45
true,2,1,4,0,false,q,true,false,0.0-2.0-0.9-0.86-3.86,1,1,0,90,false,stim,false,0,362.19999998807907,0,1,1,97117,WMM2,388543,false,false,421,image-keyboard-response,46
true,2,1,4,2,false,d,true,false,0.0-2.0-0.9-0.87-3.87,1,1,0,90,false,stim,false,2,1056.6000000238419,0,0,2,97117,WMM2,391118,false,false,424,image-keyboard-response,47
true,2,1,4,0,false,q,true,false,0.0-2.0-0.9-0.88-3.88,1,1,0,90,false,stim,false,0,1004.4000000357628,0,1,0,97117,WMM2,393629,false,false,427,image-keyboard-response,48
true,2,0,4,0,true,q,false,true,0.0-2.0-0.9-0.89-3.89,1,1,0,81,false,stim,false,0,821.1999999880791,0,1,0,97117,WMM2,395958,false,false,430,image-keyboard-response,49
true,2,0,4,0,true,q,false,true,0.0-2.0-0.10-0.90-3.90,1,1,0,81,false,stim,false,0,982.0999999642372,0,1,0,97117,WMM2,398448,false,false,433,image-keyboard-response,50
true,2,0,4,2,false,d,true,false,0.0-2.0-0.10-0.91-3.91,1,1,0,81,false,stim,false,2,1211.2999999523163,0,0,2,97117,WMM2,401168,false,false,436,image-keyboard-response,51
true,2,1,4,0,false,q,true,false,0.0-2.0-0.10-0.92-3.92,1,1,0,90,false,stim,false,0,531.1999999880791,0,1,1,97117,WMM2,403206,false,false,439,image-keyboard-response,52
true,2,0,4,0,true,q,false,true,0.0-2.0-0.10-0.93-3.93,1,1,0,81,false,stim,false,0,917.1999999880791,0,0,0,97117,WMM2,405630,false,false,442,image-keyboard-response,53
true,2,2,4,2,true,d,false,true,0.0-2.0-0.10-0.94-3.94,1,1,0,68,false,stim,false,2,838.0999999642372,0,0,2,97117,WMM2,407975,false,false,445,image-keyboard-response,54
true,2,0,4,0,true,q,false,true,0.0-2.0-0.10-0.95-3.95,1,1,0,81,false,stim,false,0,1023.0,0,1,1,97117,WMM2,410504,false,false,448,image-keyboard-response,55
true,2,2,4,2,true,d,false,true,0.0-2.0-0.10-0.96-3.96,1,1,0,68,false,stim,false,2,550.9000000357628,0,0,2,97117,WMM2,412562,false,false,451,image-keyboard-response,56
true,2,0,4,0,true,q,false,true,0.0-2.0-0.10-0.97-3.97,1,1,0,81,false,stim,false,0,767.0,0,1,1,97117,WMM2,414835,false,false,454,image-keyboard-response,57
true,2,0,4,0,true,q,false,false,0.0-2.0-0.10-0.98-3.98,1,1,0,81,false,stim,false,0,550.0999999642372,0,0,0,97117,WMM2,416893,false,true,457,image-keyboard-response,58
true,2,1,4,0,false,q,true,false,0.0-2.0-0.11-0.99-3.99,1,1,0,90,false,stim,false,0,461.10000002384186,0,0,0,97117,WMM2,418863,false,false,460,image-keyboard-response,59
true,2,2,4,0,false,q,true,false,0.0-2.0-0.11-0.100-3.100,1,1,0,68,false,stim,false,0,572.1999999880791,0,0,0,97117,WMM2,420943,false,false,463,image-keyboard-response,60
true,3,2,1,1,false,z,false,false,0.0-2.0-0.11-0.101-3.101,0,1,0,68,true,stim,true,2,917.6999999880791,0,0,2,97117,WMM2,423367,false,false,466,image-keyboard-response,1
true,3,1,1,1,true,z,false,true,0.0-2.0-0.11-0.102-3.102,0,1,0,90,false,stim,false,2,874.2000000476837,0,0,2,97117,WMM2,425748,false,false,469,image-keyboard-response,2
true,3,0,1,1,false,z,false,false,0.0-2.0-0.11-0.103-3.103,0,1,0,81,false,stim,true,0,743.8000000119209,0,0,0,97117,WMM2,427998,false,false,472,image-keyboard-response,3
true,3,1,1,0,false,q,true,false,0.0-2.0-0.11-0.104-3.104,0,1,0,90,false,stim,false,0,774.6999999880791,0,1,1,97117,WMM2,430287,false,false,475,image-keyboard-response,4
true,3,0,1,1,false,z,true,false,0.0-2.0-0.11-0.105-3.105,0,1,0,81,false,stim,false,2,1529.7000000476837,0,0,2,97117,WMM2,433323,false,false,478,image-keyboard-response,5
true,3,0,1,0,true,q,false,true,0.0-2.0-0.11-0.106-3.106,0,1,0,81,false,stim,false,0,862.0,0,1,1,97117,WMM2,435705,false,false,481,image-keyboard-response,6
true,3,0,1,0,true,q,false,true,0.0-2.0-0.11-0.107-3.107,0,1,0,81,false,stim,false,0,577.6000000238419,0,1,1,97117,WMM2,437799,false,false,484,image-keyboard-response,7
true,3,0,1,0,true,q,false,false,0.0-2.0-0.12-0.108-3.108,0,1,0,81,false,stim,false,0,425.0,0,1,1,97117,WMM2,439730,false,true,487,image-keyboard-response,8
true,3,0,1,1,false,z,false,false,0.0-2.0-0.12-0.109-3.109,0,1,0,81,false,stim,true,0,1125.800000011921,0,0,0,97117,WMM2,442362,false,false,490,image-keyboard-response,9
true,3,1,1,0,false,q,true,false,0.0-2.0-0.12-0.110-3.110,0,1,0,90,false,stim,false,0,529.5,0,1,1,97117,WMM2,444398,false,false,493,image-keyboard-response,10
true,3,2,1,0,false,q,true,true,0.0-2.0-0.12-0.111-3.111,0,1,0,68,false,stim,false,0,370.0,0,1,1,97117,WMM2,446274,false,true,496,image-keyboard-response,11
true,3,0,1,1,false,z,false,false,0.0-2.0-0.12-0.112-3.112,0,1,0,81,false,stim,true,0,787.1999999880791,0,0,0,97117,WMM2,448566,false,false,499,image-keyboard-response,12
true,3,2,1,1,false,z,false,false,0.0-2.0-0.12-0.113-3.113,0,1,0,68,false,stim,true,2,584.6000000238419,0,0,2,97117,WMM2,450661,false,false,502,image-keyboard-response,13
true,3,1,1,1,true,z,false,true,0.0-2.0-0.12-0.114-3.114,0,1,0,90,false,stim,false,0,1085.7999999523163,0,0,0,97117,WMM2,453256,false,false,505,image-keyboard-response,14
true,3,1,1,1,true,z,false,true,0.0-2.0-0.12-0.115-3.115,0,1,0,90,false,stim,false,2,1172.5999999642372,0,0,2,97117,WMM2,455935,false,false,508,image-keyboard-response,15
true,3,1,1,1,true,z,false,true,0.0-2.0-0.12-0.116-3.116,0,1,0,90,false,stim,false,2,551.1000000238419,0,0,2,97117,WMM2,457992,false,false,511,image-keyboard-response,16
true,3,2,1,0,false,q,true,false,0.0-2.0-0.13-0.117-3.117,0,1,0,68,false,stim,false,0,993.2999999523163,0,1,1,97117,WMM2,460492,false,false,514,image-keyboard-response,17
true,3,2,1,1,false,z,true,false,0.0-2.0-0.13-0.118-3.118,0,1,0,68,false,stim,false,0,1346.0,0,0,0,97117,WMM2,463345,false,false,517,image-keyboard-response,18
true,3,0,1,1,false,z,true,false,0.0-2.0-0.13-0.119-3.119,0,1,0,81,false,stim,false,2,471.19999998807907,0,0,2,97117,WMM2,465324,false,false,520,image-keyboard-response,19
true,3,1,1,1,true,z,false,true,0.0-2.0-0.13-0.120-3.120,0,1,0,90,false,stim,false,2,368.80000001192093,0,0,2,97117,WMM2,467199,false,false,523,image-keyboard-response,20
true,3,0,1,0,true,q,false,true,0.0-2.0-0.13-0.121-3.121,0,1,0,81,false,stim,false,0,554.0,0,1,1,97117,WMM2,469261,false,false,526,image-keyboard-response,21
true,3,2,1,1,false,z,true,false,0.0-2.0-0.13-0.122-3.122,0,1,0,68,false,stim,false,0,610.8999999761581,0,0,0,97117,WMM2,471380,false,false,529,image-keyboard-response,22
true,3,0,1,1,false,z,true,false,0.0-2.0-0.13-0.123-3.123,0,1,0,81,false,stim,false,2,1711.5,0,0,2,97117,WMM2,474613,false,false,532,image-keyboard-response,23
true,3,1,1,1,true,z,false,true,0.0-2.0-0.13-0.124-3.124,0,1,0,90,false,stim,false,0,665.1999999880791,0,0,0,97117,WMM2,476785,false,false,535,image-keyboard-response,24
true,3,2,1,0,false,q,true,false,0.0-2.0-0.13-0.125-3.125,0,1,0,68,false,stim,false,0,817.3000000119209,0,1,1,97117,WMM2,479110,false,false,538,image-keyboard-response,25
true,3,1,1,1,true,z,false,true,0.0-2.0-0.14-0.126-3.126,0,1,0,90,false,stim,false,2,379.0,0,0,2,97117,WMM2,480998,false,false,541,image-keyboard-response,26
true,3,1,1,1,true,z,false,false,0.0-2.0-0.14-0.127-3.127,0,1,0,90,false,stim,false,2,613.3000000119209,0,0,2,97117,WMM2,483117,false,true,544,image-keyboard-response,27
true,3,1,1,1,true,z,false,true,0.0-2.0-0.14-0.128-3.128,0,1,0,90,false,stim,false,0,378.9000000357628,0,0,0,97117,WMM2,485013,false,false,547,image-keyboard-response,28
true,3,1,1,0,false,q,true,false,0.0-2.0-0.14-0.129-3.129,0,1,0,90,false,stim,false,0,346.4000000357628,0,1,1,97117,WMM2,486867,false,false,550,image-keyboard-response,29
true,3,1,1,1,true,z,false,true,0.0-2.0-0.14-0.130-3.130,0,1,0,90,false,stim,false,0,591.9000000357628,0,0,0,97117,WMM2,488967,false,false,553,image-keyboard-response,30
true,3,1,1,1,true,z,false,false,0.0-2.0-0.14-0.131-3.131,0,1,0,90,false,stim,false,0,573.5,0,0,0,97117,WMM2,491048,false,true,556,image-keyboard-response,31
true,3,0,1,1,false,z,true,false,0.0-2.0-0.14-0.132-3.132,0,1,0,81,false,stim,false,2,550.8999999761581,0,0,2,97117,WMM2,493110,false,false,559,image-keyboard-response,32
true,3,0,1,0,true,q,false,false,0.0-2.0-0.14-0.133-3.133,0,1,0,81,false,stim,false,0,826.1999999880791,0,1,1,97117,WMM2,495443,false,true,562,image-keyboard-response,33
true,3,1,1,0,false,q,true,false,0.0-2.0-0.14-0.134-3.134,0,1,0,90,false,stim,false,0,1021.0999999642372,0,1,1,97117,WMM2,497972,false,false,565,image-keyboard-response,34
true,3,1,1,1,true,z,false,true,0.0-2.0-0.15-0.135-3.135,0,1,0,90,false,stim,false,0,760.6000000238419,0,0,0,97117,WMM2,500241,false,false,568,image-keyboard-response,35
true,3,1,1,1,true,z,false,true,0.0-2.0-0.15-0.136-3.136,0,1,0,90,false,stim,false,0,763.5,0,0,0,97117,WMM2,502510,false,false,571,image-keyboard-response,36
true,3,2,1,1,false,z,true,false,0.0-2.0-0.15-0.137-3.137,0,1,0,68,false,stim,false,0,568.1999999880791,0,0,0,97117,WMM2,504586,false,false,574,image-keyboard-response,37
true,3,1,1,1,true,z,false,true,0.0-2.0-0.15-0.138-3.138,0,1,0,90,false,stim,false,2,1029.5,0,0,2,97117,WMM2,507124,false,false,577,image-keyboard-response,38
true,3,1,1,0,false,q,true,false,0.0-2.0-0.15-0.139-3.139,0,1,0,90,false,stim,false,0,976.1999999880791,0,1,1,97117,WMM2,509616,false,false,580,image-keyboard-response,39
true,3,0,1,1,false,z,true,true,0.0-2.0-0.15-0.140-3.140,0,1,0,81,false,stim,false,2,705.0,0,0,2,97117,WMM2,511829,false,true,583,image-keyboard-response,40
true,3,0,1,0,true,q,false,true,0.0-2.0-0.15-0.141-3.141,0,1,0,81,false,stim,false,0,703.4000000357628,0,1,1,97117,WMM2,514042,false,false,586,image-keyboard-response,41
true,3,0,1,1,false,z,true,false,0.0-2.0-0.15-0.142-3.142,0,1,0,81,false,stim,false,2,1095.9000000357628,0,0,2,97117,WMM2,516646,false,false,589,image-keyboard-response,42
true,3,0,1,0,true,q,false,true,0.0-2.0-0.15-0.143-3.143,0,1,0,81,false,stim,false,0,761.0999999642372,0,1,1,97117,WMM2,518917,false,false,592,image-keyboard-response,43
true,3,0,1,0,true,q,false,true,0.0-2.0-0.16-0.144-3.144,0,1,0,81,false,stim,false,0,670.4000000357628,0,1,1,97117,WMM2,521109,false,false,595,image-keyboard-response,44
true,3,2,1,1,false,z,true,false,0.0-2.0-0.16-0.145-3.145,0,1,0,68,false,stim,false,0,761.0,0,0,0,97117,WMM2,523378,false,false,598,image-keyboard-response,45
true,3,1,1,1,true,z,false,true,0.0-2.0-0.16-0.146-3.146,0,1,0,90,false,stim,false,2,390.7000000476837,0,0,2,97117,WMM2,525285,false,false,601,image-keyboard-response,46
true,3,1,1,1,true,z,false,true,0.0-2.0-0.16-0.147-3.147,0,1,0,90,false,stim,false,0,879.3000000119209,0,0,0,97117,WMM2,527672,false,false,604,image-keyboard-response,47
true,3,1,1,1,true,z,false,true,0.0-2.0-0.16-0.148-3.148,0,1,0,90,false,stim,false,0,1192.699999988079,0,0,0,97117,WMM2,530374,false,false,607,image-keyboard-response,48
true,3,0,1,1,false,z,true,false,0.0-2.0-0.16-0.149-3.149,0,1,0,81,false,stim,false,2,870.5999999642372,0,0,2,97117,WMM2,532752,false,false,610,image-keyboard-response,49
true,3,1,1,0,false,q,true,false,0.0-2.0-0.16-0.150-3.150,0,1,0,90,false,stim,false,0,512.5,0,1,1,97117,WMM2,534772,false,false,613,image-keyboard-response,50
true,3,2,1,1,false,z,false,true,0.0-2.0-0.16-0.151-3.151,0,1,0,68,false,stim,true,2,366.5,0,0,2,97117,WMM2,536647,false,true,616,image-keyboard-response,51
true,3,0,1,0,true,q,false,true,0.0-2.0-0.16-0.152-3.152,0,1,0,81,false,stim,false,0,899.0,0,1,1,97117,WMM2,539052,false,false,619,image-keyboard-response,52
true,3,1,1,0,false,q,true,true,0.0-2.0-0.17-0.153-3.153,0,1,0,90,false,stim,false,0,971.3000000119209,0,1,1,97117,WMM2,541529,false,true,622,image-keyboard-response,53
true,3,1,1,1,true,z,false,true,0.0-2.0-0.17-0.154-3.154,0,1,0,90,false,stim,false,0,873.5999999642372,0,1,0,97117,WMM2,543909,false,false,625,image-keyboard-response,54
true,3,2,1,1,false,z,true,false,0.0-2.0-0.17-0.155-3.155,0,1,0,68,false,stim,false,0,529.0999999642372,0,1,0,97117,WMM2,545946,false,false,628,image-keyboard-response,55
true,3,1,1,1,true,z,false,true,0.0-2.0-0.17-0.156-3.156,0,1,0,90,false,stim,false,2,390.39999997615814,0,0,2,97117,WMM2,547841,false,false,631,image-keyboard-response,56
true,3,1,1,1,true,z,false,true,0.0-2.0-0.17-0.157-3.157,0,1,0,90,false,stim,false,2,1020.8000000119209,0,0,2,97117,WMM2,550377,false,false,634,image-keyboard-response,57
true,3,0,1,0,true,q,false,true,0.0-2.0-0.17-0.158-3.158,0,1,0,81,false,stim,false,0,782.3999999761581,0,1,1,97117,WMM2,552667,false,false,637,image-keyboard-response,58
true,3,1,1,1,true,z,false,true,0.0-2.0-0.17-0.159-3.159,0,1,0,90,false,stim,false,0,548.6000000238419,0,1,0,97117,WMM2,554722,false,false,640,image-keyboard-response,59
true,3,0,1,1,false,z,true,false,0.0-2.0-0.17-0.160-3.160,0,1,0,81,false,stim,false,2,646.2000000476837,0,0,2,97117,WMM2,556878,false,false,643,image-keyboard-response,60
true,4,1,2,0,false,q,true,false,0.0-2.0-0.17-0.161-3.161,1,1,0,90,true,stim,false,0,311.60000002384186,0,1,1,97117,WMM2,558696,false,false,646,image-keyboard-response,1
true,4,0,2,0,true,q,false,true,0.0-2.0-0.18-0.162-3.162,1,1,0,81,false,stim,false,0,557.9000000357628,0,1,1,97117,WMM2,560759,false,false,649,image-keyboard-response,2
true,4,1,2,2,false,d,false,false,0.0-2.0-0.18-0.163-3.163,1,1,0,90,false,stim,true,1,503.9000000357628,0,0,2,97117,WMM2,562768,false,false,652,image-keyboard-response,3
true,4,0,2,0,true,q,false,true,0.0-2.0-0.18-0.164-3.164,1,1,0,81,false,stim,false,0,591.1999999880791,0,1,1,97117,WMM2,564866,false,false,655,image-keyboard-response,4
true,4,2,2,1,false,z,true,false,0.0-2.0-0.18-0.165-3.165,1,1,0,68,false,stim,false,1,822.9000000357628,0,1,0,97117,WMM2,567195,false,false,658,image-keyboard-response,5
true,4,1,2,2,false,d,false,false,0.0-2.0-0.18-0.166-3.166,1,1,0,90,false,stim,true,1,458.0,0,0,2,97117,WMM2,569159,false,false,661,image-keyboard-response,6
true,4,1,2,1,true,z,false,true,0.0-2.0-0.18-0.167-3.167,1,1,0,90,false,stim,false,1,405.30000001192093,0,1,0,97117,WMM2,571072,false,false,664,image-keyboard-response,7
true,4,0,2,0,true,q,false,true,0.0-2.0-0.18-0.168-3.168,1,1,0,81,false,stim,false,0,520.9000000357628,0,1,1,97117,WMM2,573099,false,false,667,image-keyboard-response,8
true,4,1,2,1,true,z,false,true,0.0-2.0-0.18-0.169-3.169,1,1,0,90,false,stim,false,1,516.6999999880791,0,1,0,97117,WMM2,575122,false,false,670,image-keyboard-response,9
true,4,2,2,2,true,d,false,true,0.0-2.0-0.18-0.170-3.170,1,1,0,68,false,stim,false,1,1198.800000011921,0,0,2,97117,WMM2,577827,false,false,673,image-keyboard-response,10
true,4,1,2,1,true,z,false,true,0.0-2.0-0.19-0.171-3.171,1,1,0,90,false,stim,false,1,1325.3999999761581,0,1,0,97117,WMM2,580658,false,false,676,image-keyboard-response,11
true,4,1,2,1,true,z,false,true,0.0-2.0-0.19-0.172-3.172,1,1,0,90,false,stim,false,1,588.8000000119209,0,1,0,97117,WMM2,582754,false,false,679,image-keyboard-response,12
true,4,1,2,1,true,z,false,true,0.0-2.0-0.19-0.173-3.173,1,1,0,90,false,stim,false,1,555.5,0,1,0,97117,WMM2,584817,false,false,682,image-keyboard-response,13
true,4,0,2,0,true,q,false,true,0.0-2.0-0.19-0.174-3.174,1,1,0,81,false,stim,false,0,385.5,0,1,1,97117,WMM2,586708,false,false,685,image-keyboard-response,14
true,4,0,2,0,true,q,false,true,0.0-2.0-0.19-0.175-3.175,1,1,0,81,false,stim,false,0,2682.899999976158,0,1,1,97117,WMM2,590896,false,false,688,image-keyboard-response,15
true,4,2,2,2,true,d,false,true,0.0-2.0-0.19-0.176-3.176,1,1,0,68,false,stim,false,1,761.0,0,0,2,97117,WMM2,593164,false,false,691,image-keyboard-response,16
true,4,0,2,0,true,q,false,true,0.0-2.0-0.19-0.177-3.177,1,1,0,81,false,stim,false,0,685.8999999761581,0,1,1,97117,WMM2,595360,false,false,694,image-keyboard-response,17
true,4,2,2,2,true,d,false,true,0.0-2.0-0.19-0.178-3.178,1,1,0,68,false,stim,false,1,743.1000000238419,0,0,2,97117,WMM2,597608,false,false,697,image-keyboard-response,18
true,4,2,2,2,true,d,false,true,0.0-2.0-0.19-0.179-3.179,1,1,0,68,false,stim,false,1,494.0999999642372,0,0,2,97117,WMM2,599609,false,false,700,image-keyboard-response,19
true,4,1,2,1,true,z,false,true,0.0-2.0-0.20-0.180-3.180,1,1,0,90,false,stim,false,1,478.10000002384186,0,1,0,97117,WMM2,601596,false,false,703,image-keyboard-response,20
true,4,2,2,2,true,d,false,true,0.0-2.0-0.20-0.181-3.181,1,1,0,68,false,stim,false,1,552.4000000357628,0,1,2,97117,WMM2,603659,false,false,706,image-keyboard-response,21
true,4,1,2,1,true,z,false,true,0.0-2.0-0.20-0.182-3.182,1,1,0,90,false,stim,false,1,499.80000001192093,0,0,0,97117,WMM2,605665,false,false,709,image-keyboard-response,22
true,4,2,2,2,true,d,false,true,0.0-2.0-0.20-0.183-3.183,1,1,0,68,false,stim,false,1,730.8999999761581,0,1,2,97117,WMM2,607902,false,false,712,image-keyboard-response,23
true,4,0,2,0,true,q,false,true,0.0-2.0-0.20-0.184-3.184,1,1,0,81,false,stim,false,0,686.1999999880791,0,1,1,97117,WMM2,610095,false,false,715,image-keyboard-response,24
true,4,1,2,1,true,z,false,true,0.0-2.0-0.20-0.185-3.185,1,1,0,90,false,stim,false,1,515.0,0,0,0,97117,WMM2,612115,false,false,718,image-keyboard-response,25
true,4,0,2,0,true,q,false,true,0.0-2.0-0.20-0.186-3.186,1,1,0,81,false,stim,false,0,1161.0,0,1,1,97117,WMM2,614783,false,false,721,image-keyboard-response,26
true,4,0,2,0,true,q,false,true,0.0-2.0-0.20-0.187-3.187,1,1,0,81,false,stim,false,0,498.30000001192093,0,1,1,97117,WMM2,616786,false,false,724,image-keyboard-response,27
true,4,2,2,2,true,d,false,true,0.0-2.0-0.20-0.188-3.188,1,1,0,68,false,stim,false,1,552.8000000119209,0,1,2,97117,WMM2,618846,false,false,727,image-keyboard-response,28
true,4,2,2,2,true,d,false,false,0.0-2.0-0.21-0.189-3.189,1,1,0,68,false,stim,false,1,462.19999998807907,0,1,2,97117,WMM2,620815,false,true,730,image-keyboard-response,29
true,4,0,2,0,true,q,false,true,0.0-2.0-0.21-0.190-3.190,1,1,0,81,false,stim,false,0,1256.6000000238419,0,1,1,97117,WMM2,623576,false,false,733,image-keyboard-response,30
true,5,1,4,1,true,z,false,true,0.0-2.0-0.21-0.191-3.191,0,1,1,90,true,stim,false,1,491.19999998807907,0,0,0,97117,WMM2,625577,false,false,736,image-keyboard-response,1
true,5,0,4,0,true,q,false,true,0.0-2.0-0.21-0.192-3.192,0,1,1,81,false,stim,false,0,786.6000000238419,0,1,1,97117,WMM2,627872,false,false,739,image-keyboard-response,2
true,5,1,4,1,true,z,false,true,0.0-2.0-0.21-0.193-3.193,0,1,1,90,false,stim,false,1,530.1000000238419,0,0,0,97117,WMM2,629909,false,false,742,image-keyboard-response,3
true,5,0,4,0,true,q,false,true,0.0-2.0-0.21-0.194-3.194,0,1,1,81,false,stim,false,0,629.5,0,1,1,97117,WMM2,632046,false,false,745,image-keyboard-response,4
true,5,1,4,1,true,z,false,true,0.0-2.0-0.21-0.195-3.195,0,1,1,90,false,stim,false,1,424.4000000357628,0,0,0,97117,WMM2,633977,false,false,748,image-keyboard-response,5
true,5,0,4,2,false,d,true,false,0.0-2.0-0.21-0.196-3.196,0,1,1,81,false,stim,false,2,573.6999999880791,0,1,2,97117,WMM2,636058,false,false,751,image-keyboard-response,6
true,5,1,4,2,false,d,true,false,0.0-2.0-0.21-0.197-3.197,0,1,1,90,false,stim,false,2,484.19999998807907,0,1,2,97117,WMM2,638048,false,false,754,image-keyboard-response,7
true,5,1,4,1,true,z,false,true,0.0-2.0-0.22-0.198-3.198,0,1,1,90,false,stim,false,1,1241.6000000238419,0,0,0,97117,WMM2,640808,false,false,757,image-keyboard-response,8
true,5,2,4,2,true,d,false,true,0.0-2.0-0.22-0.199-3.199,0,1,1,68,false,stim,false,2,1662.5,0,1,2,97117,WMM2,643977,false,false,760,image-keyboard-response,9
true,5,1,4,1,true,z,false,true,0.0-2.0-0.22-0.200-3.200,0,1,1,90,false,stim,false,1,2227.400000035763,0,0,0,97117,WMM2,647726,false,false,763,image-keyboard-response,10
true,5,1,4,1,true,z,false,true,0.0-2.0-0.22-0.201-3.201,0,1,1,90,false,stim,false,1,572.8000000119209,0,0,0,97117,WMM2,649803,false,false,766,image-keyboard-response,11
true,5,0,4,0,true,q,false,false,0.0-2.0-0.22-0.202-3.202,0,1,1,81,false,stim,false,0,574.4000000357628,0,1,1,97117,WMM2,651884,false,true,769,image-keyboard-response,12
true,5,2,4,0,false,q,true,false,0.0-2.0-0.22-0.203-3.203,0,1,1,68,false,stim,false,0,442.7000000476837,0,1,1,97117,WMM2,653833,false,false,772,image-keyboard-response,13
true,5,1,4,0,false,q,true,false,0.0-2.0-0.22-0.204-3.204,0,1,1,90,false,stim,false,0,788.6000000238419,0,1,1,97117,WMM2,656127,false,false,775,image-keyboard-response,14
true,5,2,4,2,true,d,false,true,0.0-2.0-0.22-0.205-3.205,0,1,1,68,false,stim,false,2,742.7999999523163,0,1,2,97117,WMM2,658376,false,false,778,image-keyboard-response,15
true,5,2,4,2,true,d,false,true,0.0-2.0-0.22-0.206-3.206,0,1,1,68,false,stim,false,2,687.0,0,1,2,97117,WMM2,660570,false,false,781,image-keyboard-response,16
true,5,1,4,1,true,z,false,true,0.0-2.0-0.23-0.207-3.207,0,1,1,90,false,stim,false,1,384.19999998807907,0,0,0,97117,WMM2,662458,false,false,784,image-keyboard-response,17
true,5,2,4,2,true,d,false,true,0.0-2.0-0.23-0.208-3.208,0,1,1,68,false,stim,false,2,612.8999999761581,0,1,2,97117,WMM2,664577,false,false,787,image-keyboard-response,18
true,5,2,4,2,true,d,false,true,0.0-2.0-0.23-0.209-3.209,0,1,1,68,false,stim,false,2,518.1999999880791,0,1,2,97117,WMM2,666602,false,false,790,image-keyboard-response,19
true,5,1,4,1,true,z,false,true,0.0-2.0-0.23-0.210-3.210,0,1,1,90,false,stim,false,1,1346.800000011921,0,0,0,97117,WMM2,669458,false,false,793,image-keyboard-response,20
true,5,1,4,1,true,z,false,true,0.0-2.0-0.23-0.211-3.211,0,1,1,90,false,stim,false,1,512.4000000357628,0,0,0,97117,WMM2,671479,false,false,796,image-keyboard-response,21
true,5,0,4,0,true,q,false,true,0.0-2.0-0.23-0.212-3.212,0,1,1,81,false,stim,false,0,420.5999999642372,0,1,1,97117,WMM2,673408,false,false,799,image-keyboard-response,22
true,5,2,4,2,true,d,false,true,0.0-2.0-0.23-0.213-3.213,0,1,1,68,false,stim,false,2,548.3999999761581,0,1,2,97117,WMM2,675471,false,false,802,image-keyboard-response,23
true,5,0,4,0,true,q,false,true,0.0-2.0-0.23-0.214-3.214,0,1,1,81,false,stim,false,0,1383.300000011921,0,1,1,97117,WMM2,678364,false,false,805,image-keyboard-response,24
true,5,0,4,0,true,q,false,true,0.0-2.0-0.23-0.215-3.215,0,1,1,81,false,stim,false,0,549.4000000357628,0,0,1,97117,WMM2,680421,false,false,808,image-keyboard-response,25
true,5,2,4,2,true,d,false,true,0.0-2.0-0.24-0.216-3.216,0,1,1,68,false,stim,false,2,632.6999999880791,0,1,2,97117,WMM2,682560,false,false,811,image-keyboard-response,26
true,5,0,4,0,true,q,false,true,0.0-2.0-0.24-0.217-3.217,0,1,1,81,false,stim,false,0,1515.8999999761581,0,0,1,97117,WMM2,685583,false,false,814,image-keyboard-response,27
true,5,0,4,0,true,q,false,true,0.0-2.0-0.24-0.218-3.218,0,1,1,81,false,stim,false,0,511.5999999642372,0,0,1,97117,WMM2,687602,false,false,817,image-keyboard-response,28
true,5,2,4,2,true,d,false,true,0.0-2.0-0.24-0.219-3.219,0,1,1,68,false,stim,false,2,1028.800000011921,0,1,2,97117,WMM2,690139,false,false,820,image-keyboard-response,29
true,5,2,4,2,true,d,false,false,0.0-2.0-0.24-0.220-3.220,0,1,1,68,false,stim,false,2,475.5999999642372,0,1,2,97117,WMM2,692121,false,true,823,image-keyboard-response,30
true,5,0,4,0,true,q,false,false,0.0-2.0-0.24-0.221-3.221,0,1,1,81,false,stim,false,0,993.7999999523163,0,0,1,97117,WMM2,694622,false,true,826,image-keyboard-response,31
true,5,1,4,1,true,z,false,true,0.0-2.0-0.24-0.222-3.222,0,1,1,90,false,stim,false,1,510.7000000476837,0,0,0,97117,WMM2,696640,false,false,829,image-keyboard-response,32
true,5,1,4,1,true,z,false,true,0.0-2.0-0.24-0.223-3.223,0,1,1,90,false,stim,false,1,1966.800000011921,0,0,0,97117,WMM2,700114,false,false,832,image-keyboard-response,33
true,5,1,4,1,true,z,false,true,0.0-2.0-0.24-0.224-3.224,0,1,1,90,false,stim,false,1,605.8000000119209,0,0,0,97117,WMM2,702227,false,false,835,image-keyboard-response,34
true,6,1,1,0,false,q,false,false,0.0-2.0-0.25-0.225-3.225,0,0,1,90,true,stim,true,1,422.5,0,0,0,97117,WMM2,704158,false,false,838,image-keyboard-response,1
true,6,0,1,2,false,d,false,false,0.0-2.0-0.25-0.226-3.226,0,0,1,81,false,stim,true,0,862.9000000357628,0,0,1,97117,WMM2,706529,false,false,841,image-keyboard-response,2
true,6,1,1,0,false,q,false,false,0.0-2.0-0.25-0.227-3.227,0,0,1,90,false,stim,true,1,758.9000000357628,0,0,0,97117,WMM2,708795,false,false,844,image-keyboard-response,3
true,6,2,1,2,true,d,false,true,0.0-2.0-0.25-0.228-3.228,0,0,1,68,false,stim,false,2,589.1999999880791,0,1,2,97117,WMM2,710890,false,false,847,image-keyboard-response,4
true,6,1,1,0,false,q,false,false,0.0-2.0-0.25-0.229-3.229,0,0,1,90,false,stim,true,1,499.30000001192093,0,0,0,97117,WMM2,712896,false,false,850,image-keyboard-response,5
true,6,2,1,2,true,d,false,true,0.0-2.0-0.25-0.230-3.230,0,0,1,68,false,stim,false,2,767.0,0,1,2,97117,WMM2,715170,false,false,853,image-keyboard-response,6
true,6,2,1,2,true,d,false,true,0.0-2.0-0.25-0.231-3.231,0,0,1,68,false,stim,false,2,489.69999998807907,0,1,2,97117,WMM2,717173,false,false,856,image-keyboard-response,7
true,6,0,1,2,false,d,false,false,0.0-2.0-0.25-0.232-3.232,0,0,1,81,false,stim,true,0,552.3999999761581,0,0,1,97117,WMM2,719233,false,false,859,image-keyboard-response,8
true,6,1,1,2,false,d,true,false,0.0-2.0-0.25-0.233-3.233,0,0,1,90,false,stim,false,0,630.5,0,0,1,97117,WMM2,721371,false,false,862,image-keyboard-response,9
true,6,0,1,2,false,d,false,false,0.0-2.0-0.26-0.234-3.234,0,0,1,81,false,stim,true,0,405.5,0,0,1,97117,WMM2,723283,false,false,865,image-keyboard-response,10
true,6,0,1,2,false,d,true,false,0.0-2.0-0.26-0.235-3.235,0,0,1,81,false,stim,false,2,973.1000000238419,0,1,2,97117,WMM2,725764,false,false,868,image-keyboard-response,11
true,6,0,1,2,false,d,false,false,0.0-2.0-0.26-0.236-3.236,0,0,1,81,false,stim,true,0,1137.5,0,0,1,97117,WMM2,728409,false,false,871,image-keyboard-response,12
true,6,2,1,2,true,d,false,true,0.0-2.0-0.26-0.237-3.237,0,0,1,68,false,stim,false,2,435.60000002384186,0,1,2,97117,WMM2,730352,false,false,874,image-keyboard-response,13
true,6,1,1,0,false,q,false,false,0.0-2.0-0.26-0.238-3.238,0,0,1,90,false,stim,true,1,611.7999999523163,0,0,0,97117,WMM2,732471,false,false,877,image-keyboard-response,14
true,6,2,1,0,false,q,true,false,0.0-2.0-0.26-0.239-3.239,0,0,1,68,false,stim,false,1,594.3000000119209,0,0,0,97117,WMM2,734571,false,false,880,image-keyboard-response,15
true,6,1,1,2,false,d,true,true,0.0-2.0-0.26-0.240-3.240,0,0,1,90,false,stim,false,0,1029.1000000238419,0,0,1,97117,WMM2,737107,false,true,883,image-keyboard-response,16
true,6,2,1,0,false,q,true,false,0.0-2.0-0.26-0.241-3.241,0,0,1,68,false,stim,false,1,1119.800000011921,0,0,0,97117,WMM2,739750,false,false,886,image-keyboard-response,17
true,6,2,1,2,true,d,false,true,0.0-2.0-0.26-0.242-3.242,0,0,1,68,false,stim,false,2,495.30000001192093,0,1,2,97117,WMM2,741752,false,false,889,image-keyboard-response,18
true,6,2,1,2,true,d,false,true,0.0-2.0-0.27-0.243-3.243,0,0,1,68,false,stim,false,2,617.8000000119209,0,1,2,97117,WMM2,743890,false,false,892,image-keyboard-response,19
true,6,2,1,2,true,d,false,true,0.0-2.0-0.27-0.244-3.244,0,0,1,68,false,stim,false,2,537.5,0,1,2,97117,WMM2,745933,false,false,895,image-keyboard-response,20
true,6,1,1,2,false,d,true,false,0.0-2.0-0.27-0.245-3.245,0,0,1,90,false,stim,false,0,765.6999999880791,0,0,1,97117,WMM2,748208,false,false,898,image-keyboard-response,21
true,6,0,1,2,false,d,false,false,0.0-2.0-0.27-0.246-3.246,0,0,1,81,false,stim,true,0,961.0,0,0,1,97117,WMM2,750684,false,false,901,image-keyboard-response,22
true,6,0,1,0,true,q,false,true,0.0-2.0-0.27-0.247-3.247,0,0,1,81,false,stim,false,1,1055.9000000357628,0,0,0,97117,WMM2,753251,false,false,904,image-keyboard-response,23
true,6,0,1,0,true,q,false,true,0.0-2.0-0.27-0.248-3.248,0,0,1,81,false,stim,false,1,526.8000000119209,0,0,0,97117,WMM2,755289,false,false,907,image-keyboard-response,24
true,6,2,1,2,true,d,false,true,0.0-2.0-0.27-0.249-3.249,0,0,1,68,false,stim,false,2,609.3999999761581,0,1,2,97117,WMM2,757408,false,false,910,image-keyboard-response,25
true,6,1,1,0,false,q,false,false,0.0-2.0-0.27-0.250-3.250,0,0,1,90,false,stim,true,1,839.6000000238419,0,0,0,97117,WMM2,759757,false,false,913,image-keyboard-response,26
true,6,1,1,2,false,d,true,false,0.0-2.0-0.27-0.251-3.251,0,0,1,90,false,stim,false,0,1135.3999999761581,0,0,1,97117,WMM2,762402,false,false,916,image-keyboard-response,27
true,6,0,1,0,true,q,false,true,0.0-2.0-0.28-0.252-3.252,0,0,1,81,false,stim,false,1,526.3999999761581,0,0,0,97117,WMM2,764439,false,false,919,image-keyboard-response,28
true,6,0,1,0,true,q,false,false,0.0-2.0-0.28-0.253-3.253,0,0,1,81,false,stim,false,1,479.10000002384186,0,0,0,97117,WMM2,766427,false,true,922,image-keyboard-response,29
true,6,2,1,2,true,d,false,true,0.0-2.0-0.28-0.254-3.254,0,0,1,68,false,stim,false,0,763.3999999761581,0,0,1,97117,WMM2,768700,false,false,925,image-keyboard-response,30
true,6,2,1,2,true,d,false,true,0.0-2.0-0.28-0.255-3.255,0,0,1,68,false,stim,false,2,358.0,0,1,2,97117,WMM2,770570,false,false,928,image-keyboard-response,31
true,6,2,1,2,true,d,false,true,0.0-2.0-0.28-0.256-3.256,0,0,1,68,false,stim,false,2,421.7000000476837,0,1,2,97117,WMM2,772504,false,false,931,image-keyboard-response,32
true,6,2,1,2,true,d,false,true,0.0-2.0-0.28-0.257-3.257,0,0,1,68,false,stim,false,2,1341.199999988079,0,1,2,97117,WMM2,775357,false,false,934,image-keyboard-response,33
true,6,2,1,2,true,d,false,true,0.0-2.0-0.28-0.258-3.258,0,0,1,68,false,stim,false,0,1059.2000000476837,0,0,1,97117,WMM2,777926,false,false,937,image-keyboard-response,34
true,6,2,1,2,true,d,false,true,0.0-2.0-0.28-0.259-3.259,0,0,1,68,false,stim,false,0,684.6999999880791,0,1,1,97117,WMM2,780120,false,false,940,image-keyboard-response,35
true,6,0,1,0,true,q,false,true,0.0-2.0-0.28-0.260-3.260,0,0,1,81,false,stim,false,1,930.0,0,1,0,97117,WMM2,782557,false,false,943,image-keyboard-response,36
true,6,2,1,2,true,d,false,true,0.0-2.0-0.29-0.261-3.261,0,0,1,68,false,stim,false,2,1120.0,0,0,2,97117,WMM2,785182,false,false,946,image-keyboard-response,37
true,6,0,1,2,false,d,false,false,0.0-2.0-0.29-0.262-3.262,0,0,1,81,false,stim,true,0,788.8000000119209,0,1,1,97117,WMM2,787488,false,false,949,image-keyboard-response,38
true,6,2,1,2,true,d,false,true,0.0-2.0-0.29-0.263-3.263,0,0,1,68,false,stim,false,0,559.5,0,1,1,97117,WMM2,789564,false,false,952,image-keyboard-response,39
true,6,2,1,2,true,d,false,true,0.0-2.0-0.29-0.264-3.264,0,0,1,68,false,stim,false,0,517.3000000119209,0,1,1,97117,WMM2,791589,false,false,955,image-keyboard-response,40
true,6,1,1,0,false,q,false,false,0.0-2.0-0.29-0.265-3.265,0,0,1,90,false,stim,true,1,1519.4000000357628,0,1,0,97117,WMM2,794615,false,false,958,image-keyboard-response,41
true,6,0,1,0,true,q,false,true,0.0-2.0-0.29-0.266-3.266,0,0,1,81,false,stim,false,1,703.0,0,1,0,97117,WMM2,796825,false,false,961,image-keyboard-response,42
true,6,0,1,0,true,q,false,true,0.0-2.0-0.29-0.267-3.267,0,0,1,81,false,stim,false,1,475.0,0,1,0,97117,WMM2,798807,false,false,964,image-keyboard-response,43
true,6,2,1,2,true,d,false,true,0.0-2.0-0.29-0.268-3.268,0,0,1,68,false,stim,false,2,406.5999999642372,0,0,2,97117,WMM2,800720,false,false,967,image-keyboard-response,44
true,7,2,2,0,false,q,false,false,0.0-2.0-0.29-0.269-3.269,1,1,0,68,true,stim,true,2,384.10000002384186,0,0,2,97117,WMM2,802614,false,false,970,image-keyboard-response,1
true,7,2,2,0,false,q,false,false,0.0-2.0-0.30-0.270-3.270,1,1,0,68,false,stim,true,2,1405.699999988079,0,0,2,97117,WMM2,805527,false,false,973,image-keyboard-response,2
true,7,1,2,0,false,q,true,false,0.0-2.0-0.30-0.271-3.271,1,1,0,90,false,stim,false,2,567.0,0,0,2,97117,WMM2,807601,false,false,976,image-keyboard-response,3
true,7,2,2,2,true,d,false,false,0.0-2.0-0.30-0.272-3.272,1,1,0,68,false,stim,false,2,1029.699999988079,0,1,1,97117,WMM2,810138,false,true,979,image-keyboard-response,4
true,7,0,2,0,true,q,false,true,0.0-2.0-0.30-0.273-3.273,1,1,0,81,false,stim,false,0,586.1999999880791,0,1,0,97117,WMM2,812233,false,false,982,image-keyboard-response,5
true,7,0,2,0,true,q,false,true,0.0-2.0-0.30-0.274-3.274,1,1,0,81,false,stim,false,2,404.2000000476837,0,0,2,97117,WMM2,814145,false,false,985,image-keyboard-response,6
true,7,0,2,0,true,q,false,true,0.0-2.0-0.30-0.275-3.275,1,1,0,81,false,stim,false,0,614.1999999880791,0,1,0,97117,WMM2,816266,false,false,988,image-keyboard-response,7
true,7,0,2,0,true,q,false,true,0.0-2.0-0.30-0.276-3.276,1,1,0,81,false,stim,false,0,404.5,0,1,0,97117,WMM2,818176,false,false,991,image-keyboard-response,8
true,7,0,2,2,false,d,true,false,0.0-2.0-0.30-0.277-3.277,1,1,0,81,false,stim,false,2,422.69999998807907,0,1,1,97117,WMM2,820107,false,false,994,image-keyboard-response,9
true,7,1,2,2,false,d,true,false,0.0-2.0-0.30-0.278-3.278,1,1,0,90,false,stim,false,2,901.8000000119209,0,1,1,97117,WMM2,822513,false,false,997,image-keyboard-response,10
true,7,2,2,0,false,q,false,false,0.0-2.0-0.31-0.279-3.279,1,1,0,68,false,stim,true,2,835.6999999880791,0,0,2,97117,WMM2,824856,false,false,1000,image-keyboard-response,11
true,7,1,2,2,false,d,true,false,0.0-2.0-0.31-0.280-3.280,1,1,0,90,false,stim,false,2,907.0,0,1,1,97117,WMM2,827278,false,false,1003,image-keyboard-response,12
true,7,0,2,0,true,q,false,true,0.0-2.0-0.31-0.281-3.281,1,1,0,81,false,stim,false,0,547.1999999880791,0,1,0,97117,WMM2,829332,false,false,1006,image-keyboard-response,13
true,7,0,2,2,false,d,true,false,0.0-2.0-0.31-0.282-3.282,1,1,0,81,false,stim,false,2,707.3999999761581,0,1,1,97117,WMM2,831550,false,false,1009,image-keyboard-response,14
true,7,0,2,0,true,q,false,true,0.0-2.0-0.31-0.283-3.283,1,1,0,81,false,stim,false,0,437.69999998807907,0,1,0,97117,WMM2,833495,false,false,1012,image-keyboard-response,15
true,7,2,2,0,false,q,false,false,0.0-2.0-0.31-0.284-3.284,1,1,0,68,false,stim,true,2,405.0,0,0,2,97117,WMM2,835407,false,false,1015,image-keyboard-response,16
true,7,2,2,0,false,q,true,false,0.0-2.0-0.31-0.285-3.285,1,1,0,68,false,stim,false,0,737.8000000119209,0,1,0,97117,WMM2,837665,false,false,1018,image-keyboard-response,17
true,7,0,2,0,true,q,false,false,0.0-2.0-0.31-0.286-3.286,1,1,0,81,false,stim,false,2,1791.3999999761581,0,0,2,97117,WMM2,840962,false,true,1021,image-keyboard-response,18
true,7,2,2,2,true,d,false,true,0.0-2.0-0.31-0.287-3.287,1,1,0,68,false,stim,false,2,838.6999999880791,0,1,1,97117,WMM2,843306,false,false,1024,image-keyboard-response,19
true,7,2,2,0,false,q,false,false,0.0-2.0-0.32-0.288-3.288,1,1,0,68,false,stim,true,2,493.4000000357628,0,0,2,97117,WMM2,845307,false,false,1027,image-keyboard-response,20
true,7,0,2,0,true,q,false,true,0.0-2.0-0.32-0.289-3.289,1,1,0,81,false,stim,false,0,567.6000000238419,0,1,0,97117,WMM2,847388,false,false,1030,image-keyboard-response,21
true,7,2,2,2,true,d,false,true,0.0-2.0-0.32-0.290-3.290,1,1,0,68,false,stim,false,2,405.5,0,1,1,97117,WMM2,849303,false,false,1033,image-keyboard-response,22
true,7,0,2,0,true,q,false,false,0.0-2.0-0.32-0.291-3.291,1,1,0,81,false,stim,false,0,626.0,0,1,0,97117,WMM2,851438,false,true,1036,image-keyboard-response,23
true,7,1,2,2,false,d,true,false,0.0-2.0-0.32-0.292-3.292,1,1,0,90,false,stim,false,2,1606.800000011921,0,1,1,97117,WMM2,854556,false,false,1039,image-keyboard-response,24
true,7,2,2,2,true,d,false,true,0.0-2.0-0.32-0.293-3.293,1,1,0,68,false,stim,false,2,1657.5,0,1,1,97117,WMM2,857723,false,false,1042,image-keyboard-response,25
true,7,2,2,0,false,q,false,false,0.0-2.0-0.32-0.294-3.294,1,1,0,68,false,stim,true,2,667.3999999761581,0,0,2,97117,WMM2,859902,false,false,1045,image-keyboard-response,26
true,7,0,2,0,true,q,false,true,0.0-2.0-0.32-0.295-3.295,1,1,0,81,false,stim,false,0,663.0,0,1,0,97117,WMM2,862075,false,false,1048,image-keyboard-response,27
true,7,2,2,0,false,q,false,false,0.0-2.0-0.32-0.296-3.296,1,1,0,68,false,stim,true,2,739.6000000238419,0,0,2,97117,WMM2,864325,false,false,1051,image-keyboard-response,28
true,7,0,2,2,false,d,true,true,0.0-2.0-0.33-0.297-3.297,1,1,0,81,false,stim,false,2,527.7999999523163,0,1,1,97117,WMM2,866363,false,true,1054,image-keyboard-response,29
true,7,0,2,0,true,q,false,true,0.0-2.0-0.33-0.298-3.298,1,1,0,81,false,stim,false,2,438.69999998807907,0,0,2,97117,WMM2,868313,false,false,1057,image-keyboard-response,30
true,7,0,2,0,true,q,false,true,0.0-2.0-0.33-0.299-3.299,1,1,0,81,false,stim,false,2,480.60000002384186,0,0,2,97117,WMM2,870303,false,false,1060,image-keyboard-response,31
true,7,2,2,0,false,q,true,false,0.0-2.0-0.33-0.300-3.300,1,1,0,68,false,stim,false,0,1474.5,0,1,0,97117,WMM2,873288,false,false,1063,image-keyboard-response,32
true,7,0,2,0,true,q,false,true,0.0-2.0-0.33-0.301-3.301,1,1,0,81,false,stim,false,0,679.7999999523163,0,1,0,97117,WMM2,875481,false,false,1066,image-keyboard-response,33
true,7,0,2,0,true,q,false,true,0.0-2.0-0.33-0.302-3.302,1,1,0,81,false,stim,false,0,489.60000002384186,0,1,0,97117,WMM2,877482,false,false,1069,image-keyboard-response,34
true,7,0,2,2,false,d,true,true,0.0-2.0-0.33-0.303-3.303,1,1,0,81,false,stim,false,2,876.2000000476837,0,1,1,97117,WMM2,879868,false,true,1072,image-keyboard-response,35
true,7,2,2,0,false,q,false,false,0.0-2.0-0.33-0.304-3.304,1,1,0,68,false,stim,true,2,1110.8999999761581,0,0,2,97117,WMM2,882496,false,false,1075,image-keyboard-response,36
true,7,0,2,2,false,d,true,false,0.0-2.0-0.33-0.305-3.305,1,1,0,81,false,stim,false,2,775.4000000357628,0,1,1,97117,WMM2,884781,false,false,1078,image-keyboard-response,37
true,7,0,2,0,true,q,false,true,0.0-2.0-0.34-0.306-3.306,1,1,0,81,false,stim,false,0,683.3999999761581,0,1,0,97117,WMM2,886975,false,false,1081,image-keyboard-response,38
true,7,0,2,2,false,d,true,false,0.0-2.0-0.34-0.307-3.307,1,1,0,81,false,stim,false,2,434.0,0,1,1,97117,WMM2,888919,false,false,1084,image-keyboard-response,39
true,7,1,2,0,false,q,true,false,0.0-2.0-0.34-0.308-3.308,1,1,0,90,false,stim,false,2,494.60000002384186,0,0,2,97117,WMM2,890925,false,false,1087,image-keyboard-response,40
true,7,2,2,0,false,q,false,false,0.0-2.0-0.34-0.309-3.309,1,1,0,68,false,stim,true,2,672.5,0,0,2,97117,WMM2,893108,false,false,1090,image-keyboard-response,41
true,7,2,2,2,true,d,false,false,0.0-2.0-0.34-0.310-3.310,1,1,0,68,false,stim,false,2,1050.3999999761581,0,1,1,97117,WMM2,895675,false,true,1093,image-keyboard-response,42
true,7,1,2,2,false,d,true,true,0.0-2.0-0.34-0.311-3.311,1,1,0,90,false,stim,false,2,702.1000000238419,0,1,1,97117,WMM2,897888,false,true,1096,image-keyboard-response,43
true,7,0,2,0,true,q,false,true,0.0-2.0-0.34-0.312-3.312,1,1,0,81,false,stim,false,0,526.1999999880791,0,1,0,97117,WMM2,899925,false,false,1099,image-keyboard-response,44
true,7,0,2,0,true,q,false,true,0.0-2.0-0.34-0.313-3.313,1,1,0,81,false,stim,false,2,1451.5,0,0,2,97117,WMM2,902895,false,false,1102,image-keyboard-response,45
true,7,0,2,0,true,q,false,true,0.0-2.0-0.34-0.314-3.314,1,1,0,81,false,stim,false,0,508.60000002384186,0,1,0,97117,WMM2,904915,false,false,1105,image-keyboard-response,46
true,7,0,2,0,true,q,false,true,0.0-2.0-0.35-0.315-3.315,1,1,0,81,false,stim,false,2,512.6000000238419,0,0,2,97117,WMM2,906938,false,false,1108,image-keyboard-response,47
true,7,1,2,2,false,d,true,false,0.0-2.0-0.35-0.316-3.316,1,1,0,90,false,stim,false,2,591.8000000119209,0,1,1,97117,WMM2,909057,false,false,1111,image-keyboard-response,48
true,7,0,2,0,true,q,false,true,0.0-2.0-0.35-0.317-3.317,1,1,0,81,false,stim,false,0,548.3999999761581,0,1,0,97117,WMM2,911119,false,false,1114,image-keyboard-response,49
true,7,0,2,0,true,q,false,true,0.0-2.0-0.35-0.318-3.318,1,1,0,81,false,stim,false,2,324.0999999642372,0,0,2,97117,WMM2,912957,false,false,1117,image-keyboard-response,50
true,7,0,2,0,true,q,false,true,0.0-2.0-0.35-0.319-3.319,1,1,0,81,false,stim,false,0,431.0999999642372,0,1,0,97117,WMM2,914906,false,false,1120,image-keyboard-response,51
true,7,0,2,0,true,q,false,false,0.0-2.0-0.35-0.320-3.320,1,1,0,81,false,stim,false,0,463.19999998807907,0,1,0,97117,WMM2,916877,false,true,1123,image-keyboard-response,52
true,7,0,2,2,false,d,true,false,0.0-2.0-0.35-0.321-3.321,1,1,0,81,false,stim,false,2,420.2000000476837,0,0,1,97117,WMM2,918805,false,false,1126,image-keyboard-response,53
true,7,2,2,2,true,d,false,true,0.0-2.0-0.35-0.322-3.322,1,1,0,68,false,stim,false,2,616.1000000238419,0,0,1,97117,WMM2,920925,false,false,1129,image-keyboard-response,54
true,7,2,2,0,false,q,false,false,0.0-2.0-0.35-0.323-3.323,1,1,0,68,false,stim,true,2,897.6999999880791,0,0,2,97117,WMM2,923330,false,false,1132,image-keyboard-response,55
true,7,1,2,0,false,q,true,false,0.0-2.0-0.36-0.324-3.324,1,1,0,90,false,stim,false,2,566.5,0,0,2,97117,WMM2,925406,false,false,1135,image-keyboard-response,56
true,7,0,2,0,true,q,false,true,0.0-2.0-0.36-0.325-3.325,1,1,0,81,false,stim,false,2,389.39999997615814,0,0,2,97117,WMM2,927302,false,false,1138,image-keyboard-response,57
true,7,1,2,2,false,d,true,false,0.0-2.0-0.36-0.326-3.326,1,1,0,90,false,stim,false,2,420.4000000357628,0,0,1,97117,WMM2,929231,false,false,1141,image-keyboard-response,58
true,7,1,2,0,false,q,true,false,0.0-2.0-0.36-0.327-3.327,1,1,0,90,false,stim,false,0,1009.0,0,1,0,97117,WMM2,931749,false,false,1144,image-keyboard-response,59
true,7,0,2,2,false,d,true,false,0.0-2.0-0.36-0.328-3.328,1,1,0,81,false,stim,false,2,976.1999999880791,0,0,1,97117,WMM2,934243,false,false,1147,image-keyboard-response,60
true,8,2,1,0,false,q,true,false,0.0-2.0-0.36-0.329-3.329,1,0,0,68,true,stim,false,0,569.3000000119209,0,1,0,97117,WMM2,936319,false,false,1150,image-keyboard-response,1
true,8,0,1,2,false,d,false,false,0.0-2.0-0.36-0.330-3.330,1,0,0,81,false,stim,true,0,1105.5999999642372,0,0,2,97117,WMM2,938932,false,false,1153,image-keyboard-response,2
true,8,0,1,1,false,z,true,false,0.0-2.0-0.36-0.331-3.331,1,0,0,81,false,stim,false,2,453.30000001192093,0,0,1,97117,WMM2,940894,false,false,1156,image-keyboard-response,3
true,8,0,1,0,true,q,false,false,0.0-2.0-0.36-0.332-3.332,1,0,0,81,false,stim,false,0,349.5999999642372,0,1,0,97117,WMM2,942750,false,true,1159,image-keyboard-response,4
true,8,1,1,1,true,z,false,true,0.0-2.0-0.37-0.333-3.333,1,0,0,90,false,stim,false,2,649.0,0,0,1,97117,WMM2,944906,false,false,1162,image-keyboard-response,5
true,8,2,1,0,false,q,true,false,0.0-2.0-0.37-0.334-3.334,1,0,0,68,false,stim,false,0,593.0,0,1,0,97117,WMM2,947006,false,false,1165,image-keyboard-response,6
true,8,1,1,1,true,z,false,true,0.0-2.0-0.37-0.335-3.335,1,0,0,90,false,stim,false,2,537.6999999880791,0,0,1,97117,WMM2,949052,false,false,1168,image-keyboard-response,7
true,8,1,1,1,true,z,false,true,0.0-2.0-0.37-0.336-3.336,1,0,0,90,false,stim,false,2,439.89999997615814,0,0,1,97117,WMM2,951000,false,false,1171,image-keyboard-response,8
true,8,0,1,0,true,q,false,true,0.0-2.0-0.37-0.337-3.337,1,0,0,81,false,stim,false,0,974.5,0,1,0,97117,WMM2,953480,false,false,1174,image-keyboard-response,9
true,8,0,1,0,true,q,false,false,0.0-2.0-0.37-0.338-3.338,1,0,0,81,false,stim,false,0,453.89999997615814,0,1,0,97117,WMM2,955443,false,true,1177,image-keyboard-response,10
true,8,0,1,2,false,d,false,false,0.0-2.0-0.37-0.339-3.339,1,0,0,81,false,stim,true,0,1311.699999988079,0,0,2,97117,WMM2,958261,false,false,1180,image-keyboard-response,11
true,8,1,1,2,false,d,true,false,0.0-2.0-0.37-0.340-3.340,1,0,0,90,false,stim,false,0,514.5,0,0,2,97117,WMM2,960283,false,false,1183,image-keyboard-response,12
true,8,2,1,2,true,d,false,true,0.0-2.0-0.37-0.341-3.341,1,0,0,68,false,stim,false,0,421.10000002384186,0,0,2,97117,WMM2,962212,false,false,1186,image-keyboard-response,13
true,8,1,1,1,true,z,false,true,0.0-2.0-0.38-0.342-3.342,1,0,0,90,false,stim,false,2,970.6999999880791,0,0,1,97117,WMM2,964692,false,false,1189,image-keyboard-response,14
true,8,2,1,2,true,d,false,true,0.0-2.0-0.38-0.343-3.343,1,0,0,68,false,stim,false,0,343.89999997615814,0,0,2,97117,WMM2,966543,false,false,1192,image-keyboard-response,15
true,8,1,1,1,true,z,false,true,0.0-2.0-0.38-0.344-3.344,1,0,0,90,false,stim,false,2,351.5,0,0,1,97117,WMM2,968401,false,false,1195,image-keyboard-response,16
true,8,1,1,0,false,q,true,true,0.0-2.0-0.38-0.345-3.345,1,0,0,90,false,stim,false,0,1217.800000011921,0,1,0,97117,WMM2,971126,false,true,1198,image-keyboard-response,17
true,8,1,1,0,false,q,true,false,0.0-2.0-0.38-0.346-3.346,1,0,0,90,false,stim,false,0,482.30000001192093,0,1,0,97117,WMM2,973124,false,false,1201,image-keyboard-response,18
true,8,1,1,0,false,q,true,false,0.0-2.0-0.38-0.347-3.347,1,0,0,90,false,stim,false,0,993.0999999642372,0,1,0,97117,WMM2,975623,false,false,1204,image-keyboard-response,19
true,8,2,1,2,true,d,false,true,0.0-2.0-0.38-0.348-3.348,1,0,0,68,false,stim,false,0,654.1999999880791,0,0,2,97117,WMM2,977785,false,false,1207,image-keyboard-response,20
true,8,1,1,1,true,z,false,true,0.0-2.0-0.38-0.349-3.349,1,0,0,90,false,stim,false,2,353.19999998807907,0,0,1,97117,WMM2,979649,false,false,1210,image-keyboard-response,21
true,8,2,1,2,true,d,false,true,0.0-2.0-0.38-0.350-3.350,1,0,0,68,false,stim,false,0,575.1999999880791,0,0,2,97117,WMM2,981733,false,false,1213,image-keyboard-response,22
true,8,1,1,1,true,z,false,true,0.0-2.0-0.39-0.351-3.351,1,0,0,90,false,stim,false,2,381.7000000476837,0,0,1,97117,WMM2,983624,false,false,1216,image-keyboard-response,23
true,8,1,1,1,true,z,false,true,0.0-2.0-0.39-0.352-3.352,1,0,0,90,false,stim,false,2,420.60000002384186,0,0,1,97117,WMM2,985556,false,false,1219,image-keyboard-response,24
true,8,2,1,2,true,d,false,true,0.0-2.0-0.39-0.353-3.353,1,0,0,68,false,stim,false,0,626.5999999642372,0,0,2,97117,WMM2,987693,false,false,1222,image-keyboard-response,25
true,8,1,1,1,true,z,false,true,0.0-2.0-0.39-0.354-3.354,1,0,0,90,false,stim,false,2,893.5,0,0,1,97117,WMM2,990097,false,false,1225,image-keyboard-response,26
true,8,0,1,0,true,q,false,true,0.0-2.0-0.39-0.355-3.355,1,0,0,81,false,stim,false,0,782.0,0,1,0,97117,WMM2,992386,false,false,1228,image-keyboard-response,27
true,8,2,1,2,true,d,false,true,0.0-2.0-0.39-0.356-3.356,1,0,0,68,false,stim,false,0,492.89999997615814,0,0,2,97117,WMM2,994386,false,false,1231,image-keyboard-response,28
true,8,2,1,2,true,d,false,true,0.0-2.0-0.39-0.357-3.357,1,0,0,68,false,stim,false,0,475.4000000357628,0,0,2,97117,WMM2,996374,false,false,1234,image-keyboard-response,29
true,8,0,1,0,true,q,false,true,0.0-2.0-0.39-0.358-3.358,1,0,0,81,false,stim,false,0,606.3999999761581,0,1,0,97117,WMM2,998492,false,false,1237,image-keyboard-response,30
true,8,0,1,0,true,q,false,true,0.0-2.0-0.39-0.359-3.359,1,0,0,81,false,stim,false,0,499.0,0,1,0,97117,WMM2,1000498,false,false,1240,image-keyboard-response,31
true,8,2,1,2,true,d,false,true,0.0-2.0-0.40-0.360-3.360,1,0,0,68,false,stim,false,0,558.8999999761581,0,0,2,97117,WMM2,1002562,false,false,1243,image-keyboard-response,32
true,8,0,1,0,true,q,false,true,0.0-2.0-0.40-0.361-3.361,1,0,0,81,false,stim,false,0,632.0,0,1,0,97117,WMM2,1004699,false,false,1246,image-keyboard-response,33
true,8,1,1,1,true,z,false,false,0.0-2.0-0.40-0.362-3.362,1,0,0,90,false,stim,false,2,915.5,0,1,1,97117,WMM2,1007123,false,true,1249,image-keyboard-response,34
true,8,0,1,0,true,q,false,true,0.0-2.0-0.40-0.363-3.363,1,0,0,81,false,stim,false,0,588.5,0,1,0,97117,WMM2,1009218,false,false,1252,image-keyboard-response,35
true,8,2,1,2,true,d,false,true,0.0-2.0-0.40-0.364-3.364,1,0,0,68,false,stim,false,0,436.19999998807907,0,0,2,97117,WMM2,1011168,false,false,1255,image-keyboard-response,36
true,8,2,1,2,true,d,false,false,0.0-2.0-0.40-0.365-3.365,1,0,0,68,false,stim,false,0,638.1000000238419,0,0,2,97117,WMM2,1013326,false,true,1258,image-keyboard-response,37
true,8,2,1,1,false,z,false,false,0.0-2.0-0.40-0.366-3.366,1,0,0,68,false,stim,true,2,820.9000000357628,0,1,1,97117,WMM2,1015654,false,false,1261,image-keyboard-response,38
true,8,0,1,0,true,q,false,false,0.0-2.0-0.40-0.367-3.367,1,0,0,81,false,stim,false,0,799.3999999761581,0,1,0,97117,WMM2,1017961,false,true,1264,image-keyboard-response,39
true,8,1,1,1,true,z,false,true,0.0-2.0-0.40-0.368-3.368,1,0,0,90,false,stim,false,2,739.6999999880791,0,1,1,97117,WMM2,1020209,false,false,1267,image-keyboard-response,40
true,9,2,2,0,false,q,false,false,0.0-2.0-0.41-0.369-3.369,1,1,0,68,true,stim,true,2,725.1000000238419,0,0,2,97117,WMM2,1022442,false,false,1270,image-keyboard-response,1
true,9,1,2,0,false,q,true,false,0.0-2.0-0.41-0.370-3.370,1,1,0,90,false,stim,false,2,381.5,0,0,2,97117,WMM2,1024332,false,false,1273,image-keyboard-response,2
true,9,0,2,0,true,q,false,true,0.0-2.0-0.41-0.371-3.371,1,1,0,81,false,stim,false,2,382.89999997615814,0,0,2,97117,WMM2,1026224,false,false,1276,image-keyboard-response,3
true,9,0,2,0,true,q,false,true,0.0-2.0-0.41-0.372-3.372,1,1,0,81,false,stim,false,0,591.7999999523163,0,1,0,97117,WMM2,1028324,false,false,1279,image-keyboard-response,4
true,9,0,2,1,false,z,true,false,0.0-2.0-0.41-0.373-3.373,1,1,0,81,false,stim,false,1,785.0999999642372,0,1,1,97117,WMM2,1030616,false,false,1282,image-keyboard-response,5
true,9,0,2,0,true,q,false,true,0.0-2.0-0.41-0.374-3.374,1,1,0,81,false,stim,false,0,667.1000000238419,0,1,0,97117,WMM2,1032793,false,false,1285,image-keyboard-response,6
true,9,0,2,0,true,q,false,true,0.0-2.0-0.41-0.375-3.375,1,1,0,81,false,stim,false,0,893.4000000357628,0,1,0,97117,WMM2,1035194,false,false,1288,image-keyboard-response,7
true,9,0,2,1,false,z,true,false,0.0-2.0-0.41-0.376-3.376,1,1,0,81,false,stim,false,1,545.8000000119209,0,1,1,97117,WMM2,1037249,false,false,1291,image-keyboard-response,8
true,9,1,2,1,true,z,false,false,0.0-2.0-0.41-0.377-3.377,1,1,0,90,false,stim,false,1,860.5999999642372,0,1,1,97117,WMM2,1039617,false,true,1294,image-keyboard-response,9
true,9,2,2,1,false,z,true,false,0.0-2.0-0.42-0.378-3.378,1,1,0,68,false,stim,false,1,529.8999999761581,0,1,1,97117,WMM2,1041655,false,false,1297,image-keyboard-response,10
true,9,1,2,0,false,q,true,true,0.0-2.0-0.42-0.379-3.379,1,1,0,90,false,stim,false,2,785.5,0,0,2,97117,WMM2,1043948,false,true,1300,image-keyboard-response,11
true,9,0,2,1,false,z,true,false,0.0-2.0-0.42-0.380-3.380,1,1,0,81,false,stim,false,1,906.0999999642372,0,1,1,97117,WMM2,1046369,false,false,1303,image-keyboard-response,12
true,9,1,2,0,false,q,true,false,0.0-2.0-0.42-0.381-3.381,1,1,0,90,false,stim,false,2,397.30000001192093,0,0,2,97117,WMM2,1048274,false,false,1306,image-keyboard-response,13
true,9,2,2,1,false,z,true,true,0.0-2.0-0.42-0.382-3.382,1,1,0,68,false,stim,false,1,572.0,0,1,1,97117,WMM2,1050355,false,true,1309,image-keyboard-response,14
true,9,1,2,0,false,q,true,false,0.0-2.0-0.42-0.383-3.383,1,1,0,90,false,stim,false,0,648.0,0,1,0,97117,WMM2,1052511,false,false,1312,image-keyboard-response,15
true,9,1,2,0,false,q,true,false,0.0-2.0-0.42-0.384-3.384,1,1,0,90,false,stim,false,2,1159.9000000357628,0,0,2,97117,WMM2,1055179,false,false,1315,image-keyboard-response,16
true,9,2,2,0,false,q,true,false,0.0-2.0-0.42-0.385-3.385,1,1,0,68,false,stim,false,0,1005.0,0,1,0,97117,WMM2,1057693,false,false,1318,image-keyboard-response,17
true,9,0,2,0,true,q,false,true,0.0-2.0-0.42-0.386-3.386,1,1,0,81,false,stim,false,0,395.39999997615814,0,1,0,97117,WMM2,1059598,false,false,1321,image-keyboard-response,18
true,9,0,2,0,true,q,false,true,0.0-2.0-0.43-0.387-3.387,1,1,0,81,false,stim,false,2,1177.5999999642372,0,0,2,97117,WMM2,1062284,false,false,1324,image-keyboard-response,19
true,9,0,2,0,true,q,false,true,0.0-2.0-0.43-0.388-3.388,1,1,0,81,false,stim,false,2,493.69999998807907,0,0,2,97117,WMM2,1064285,false,false,1327,image-keyboard-response,20
true,9,0,2,0,true,q,false,true,0.0-2.0-0.43-0.389-3.389,1,1,0,81,false,stim,false,0,387.2000000476837,0,1,0,97117,WMM2,1066179,false,false,1330,image-keyboard-response,21
true,9,2,2,1,false,z,true,false,0.0-2.0-0.43-0.390-3.390,1,1,0,68,false,stim,false,1,843.0,0,1,1,97117,WMM2,1068529,false,false,1333,image-keyboard-response,22
true,9,1,2,1,true,z,false,true,0.0-2.0-0.43-0.391-3.391,1,1,0,90,false,stim,false,1,416.7000000476837,0,1,1,97117,WMM2,1070454,false,false,1336,image-keyboard-response,23
true,9,0,2,0,true,q,false,true,0.0-2.0-0.43-0.392-3.392,1,1,0,81,false,stim,false,2,855.2999999523163,0,0,2,97117,WMM2,1072822,false,false,1339,image-keyboard-response,24
true,9,0,2,0,true,q,false,true,0.0-2.0-0.43-0.393-3.393,1,1,0,81,false,stim,false,0,488.89999997615814,0,1,0,97117,WMM2,1074823,false,false,1342,image-keyboard-response,25
true,9,1,2,1,true,z,false,true,0.0-2.0-0.43-0.394-3.394,1,1,0,90,false,stim,false,1,438.5,0,1,1,97117,WMM2,1076773,false,false,1345,image-keyboard-response,26
true,9,0,2,0,true,q,false,true,0.0-2.0-0.43-0.395-3.395,1,1,0,81,false,stim,false,0,627.1999999880791,0,0,0,97117,WMM2,1078913,false,false,1348,image-keyboard-response,27
true,9,0,2,1,false,z,true,false,0.0-2.0-0.44-0.396-3.396,1,1,0,81,false,stim,false,1,402.0999999642372,0,1,1,97117,WMM2,1080824,false,false,1351,image-keyboard-response,28
true,9,1,2,1,true,z,false,false,0.0-2.0-0.44-0.397-3.397,1,1,0,90,false,stim,false,1,648.1999999880791,0,1,1,97117,WMM2,1082979,false,true,1354,image-keyboard-response,29
true,9,0,2,0,true,q,false,true,0.0-2.0-0.44-0.398-3.398,1,1,0,81,false,stim,false,2,535.6999999880791,0,1,2,97117,WMM2,1085023,false,false,1357,image-keyboard-response,30
true,9,0,2,1,false,z,true,false,0.0-2.0-0.44-0.399-3.399,1,1,0,81,false,stim,false,1,628.8000000119209,0,1,1,97117,WMM2,1087161,false,false,1360,image-keyboard-response,31
true,9,0,2,0,true,q,false,false,0.0-2.0-0.44-0.400-3.400,1,1,0,81,false,stim,false,2,669.8000000119209,0,1,2,97117,WMM2,1089338,false,true,1363,image-keyboard-response,32
true,9,0,2,0,true,q,false,true,0.0-2.0-0.44-0.401-3.401,1,1,0,81,false,stim,false,0,876.5,0,0,0,97117,WMM2,1091721,false,false,1366,image-keyboard-response,33
true,9,0,2,0,true,q,false,true,0.0-2.0-0.44-0.402-3.402,1,1,0,81,false,stim,false,0,420.0,0,0,0,97117,WMM2,1093648,false,false,1369,image-keyboard-response,34
true,9,2,2,0,false,q,false,true,0.0-2.0-0.44-0.403-3.403,1,1,0,68,false,stim,true,2,535.8000000119209,0,1,2,97117,WMM2,1095692,false,true,1372,image-keyboard-response,35
true,9,0,2,0,true,q,false,true,0.0-2.0-0.44-0.404-3.404,1,1,0,81,false,stim,false,0,574.2999999523163,0,0,0,97117,WMM2,1097791,false,false,1375,image-keyboard-response,36
true,10,0,4,0,true,q,false,true,0.0-2.0-0.45-0.405-3.405,0,1,1,81,true,stim,false,0,613.0,0,0,0,97117,WMM2,1099913,false,false,1378,image-keyboard-response,1
true,10,2,4,0,false,q,true,false,0.0-2.0-0.45-0.406-3.406,0,1,1,68,false,stim,false,0,457.39999997615814,0,1,2,97117,WMM2,1101878,false,false,1381,image-keyboard-response,2
true,10,1,4,1,true,z,false,true,0.0-2.0-0.45-0.407-3.407,0,1,1,90,false,stim,false,1,919.8999999761581,0,1,1,97117,WMM2,1104303,false,false,1384,image-keyboard-response,3
true,10,0,4,0,true,q,false,true,0.0-2.0-0.45-0.408-3.408,0,1,1,81,false,stim,false,0,666.6000000238419,0,0,0,97117,WMM2,1106478,false,false,1387,image-keyboard-response,4
true,10,1,4,0,false,q,true,false,0.0-2.0-0.45-0.409-3.409,0,1,1,90,false,stim,false,0,903.3000000119209,0,1,2,97117,WMM2,1108897,false,false,1390,image-keyboard-response,5
true,10,1,4,1,true,z,false,false,0.0-2.0-0.45-0.410-3.410,0,1,1,90,false,stim,false,1,836.1999999880791,0,1,1,97117,WMM2,1111242,false,true,1393,image-keyboard-response,6
true,10,0,4,0,true,q,false,true,0.0-2.0-0.45-0.411-3.411,0,1,1,81,false,stim,false,0,874.3999999761581,0,1,2,97117,WMM2,1113622,false,false,1396,image-keyboard-response,7
true,10,0,4,0,true,q,false,true,0.0-2.0-0.45-0.412-3.412,0,1,1,81,false,stim,false,0,399.2999999523163,0,0,0,97117,WMM2,1115529,false,false,1399,image-keyboard-response,8
true,10,0,4,1,false,z,true,false,0.0-2.0-0.45-0.413-3.413,0,1,1,81,false,stim,false,1,982.5,0,1,1,97117,WMM2,1118028,false,false,1402,image-keyboard-response,9
true,10,0,4,0,true,q,false,true,0.0-2.0-0.46-0.414-3.414,0,1,1,81,false,stim,false,0,624.0,0,1,2,97117,WMM2,1120160,false,false,1405,image-keyboard-response,10
true,10,0,4,0,true,q,false,true,0.0-2.0-0.46-0.415-3.415,0,1,1,81,false,stim,false,0,501.0999999642372,0,1,2,97117,WMM2,1122169,false,false,1408,image-keyboard-response,11
true,10,2,4,1,false,z,true,true,0.0-2.0-0.46-0.416-3.416,0,1,1,68,false,stim,false,1,873.5,0,1,1,97117,WMM2,1124553,false,true,1411,image-keyboard-response,12
true,10,2,4,1,false,z,true,true,0.0-2.0-0.46-0.417-3.417,0,1,1,68,false,stim,false,1,548.4000000357628,0,1,1,97117,WMM2,1126610,false,true,1414,image-keyboard-response,13
true,10,0,4,0,true,q,false,true,0.0-2.0-0.46-0.418-3.418,0,1,1,81,false,stim,false,0,572.8999999761581,0,0,0,97117,WMM2,1128691,false,false,1417,image-keyboard-response,14
true,10,2,4,1,false,z,true,true,0.0-2.0-0.46-0.419-3.419,0,1,1,68,false,stim,false,1,443.5,0,1,1,97117,WMM2,1130641,false,true,1420,image-keyboard-response,15
true,10,0,4,0,true,q,false,true,0.0-2.0-0.46-0.420-3.420,0,1,1,81,false,stim,false,0,1011.3999999761581,0,1,2,97117,WMM2,1133161,false,false,1423,image-keyboard-response,16
true,10,0,4,0,true,q,false,true,0.0-2.0-0.46-0.421-3.421,0,1,1,81,false,stim,false,0,491.80000001192093,0,0,0,97117,WMM2,1135160,false,false,1426,image-keyboard-response,17
true,10,0,4,0,true,q,false,true,0.0-2.0-0.46-0.422-3.422,0,1,1,81,false,stim,false,0,423.2999999523163,0,0,0,97117,WMM2,1137091,false,false,1429,image-keyboard-response,18
true,10,0,4,0,true,q,false,false,0.0-2.0-0.47-0.423-3.423,0,1,1,81,false,stim,false,0,424.30000001192093,0,0,0,97117,WMM2,1139023,false,true,1432,image-keyboard-response,19
true,10,0,4,0,true,q,false,true,0.0-2.0-0.47-0.424-3.424,0,1,1,81,false,stim,false,0,460.89999997615814,0,0,0,97117,WMM2,1140991,false,false,1435,image-keyboard-response,20
true,10,0,4,1,false,z,true,false,0.0-2.0-0.47-0.425-3.425,0,1,1,81,false,stim,false,1,494.4000000357628,0,1,1,97117,WMM2,1142998,false,false,1438,image-keyboard-response,21
true,10,2,4,1,false,z,true,false,0.0-2.0-0.47-0.426-3.426,0,1,1,68,false,stim,false,1,487.80000001192093,0,1,1,97117,WMM2,1145006,false,false,1441,image-keyboard-response,22
true,10,0,4,0,true,q,false,true,0.0-2.0-0.47-0.427-3.427,0,1,1,81,false,stim,false,0,617.8000000119209,0,1,2,97117,WMM2,1147141,false,false,1444,image-keyboard-response,23
true,10,0,4,0,true,q,false,true,0.0-2.0-0.47-0.428-3.428,0,1,1,81,false,stim,false,0,418.80000001192093,0,0,0,97117,WMM2,1149072,false,false,1447,image-keyboard-response,24
true,10,2,4,1,false,z,true,false,0.0-2.0-0.47-0.429-3.429,0,1,1,68,false,stim,false,1,1549.199999988079,0,1,1,97117,WMM2,1152134,false,false,1450,image-keyboard-response,25
true,10,0,4,0,true,q,false,true,0.0-2.0-0.47-0.430-3.430,0,1,1,81,false,stim,false,0,525.0,0,1,2,97117,WMM2,1154172,false,false,1453,image-keyboard-response,26
true,10,0,4,0,true,q,false,true,0.0-2.0-0.47-0.431-3.431,0,1,1,81,false,stim,false,0,607.6999999880791,0,1,2,97117,WMM2,1156293,false,false,1456,image-keyboard-response,27
true,10,1,4,1,true,z,false,true,0.0-2.0-0.48-0.432-3.432,0,1,1,90,false,stim,false,1,891.3000000119209,0,1,1,97117,WMM2,1158696,false,false,1459,image-keyboard-response,28
true,10,0,4,0,true,q,false,false,0.0-2.0-0.48-0.433-3.433,0,1,1,81,false,stim,false,0,507.69999998807907,0,1,2,97117,WMM2,1160716,false,true,1462,image-keyboard-response,29
true,10,0,4,0,true,q,false,true,0.0-2.0-0.48-0.434-3.434,0,1,1,81,false,stim,false,0,606.6000000238419,0,0,0,97117,WMM2,1162835,false,false,1465,image-keyboard-response,30
true,10,0,4,0,true,q,false,false,0.0-2.0-0.48-0.435-3.435,0,1,1,81,false,stim,false,0,474.30000001192093,0,0,0,97117,WMM2,1164822,false,true,1468,image-keyboard-response,31
true,10,0,4,0,true,q,false,true,0.0-2.0-0.48-0.436-3.436,0,1,1,81,false,stim,false,0,1139.300000011921,0,1,2,97117,WMM2,1167473,false,false,1471,image-keyboard-response,32
true,10,0,4,0,true,q,false,true,0.0-2.0-0.48-0.437-3.437,0,1,1,81,false,stim,false,0,524.4000000357628,0,1,2,97117,WMM2,1169510,false,false,1474,image-keyboard-response,33
true,10,1,4,1,true,z,false,true,0.0-2.0-0.48-0.438-3.438,0,1,1,90,false,stim,false,1,987.0999999642372,0,1,1,97117,WMM2,1172008,false,false,1477,image-keyboard-response,34
true,10,0,4,0,true,q,false,true,0.0-2.0-0.48-0.439-3.439,0,1,1,81,false,stim,false,0,734.0,0,0,0,97117,WMM2,1174259,false,false,1480,image-keyboard-response,35
true,10,0,4,1,false,z,true,false,0.0-2.0-0.48-0.440-3.440,0,1,1,81,false,stim,false,1,509.7000000476837,0,1,1,97117,WMM2,1176278,false,false,1483,image-keyboard-response,36
true,10,1,4,1,true,z,false,true,0.0-2.0-0.49-0.441-3.441,0,1,1,90,false,stim,false,1,749.0,0,1,1,97117,WMM2,1178536,false,false,1486,image-keyboard-response,37
true,10,0,4,0,true,q,false,true,0.0-2.0-0.49-0.442-3.442,0,1,1,81,false,stim,false,0,1095.300000011921,0,0,0,97117,WMM2,1181140,false,false,1489,image-keyboard-response,38
true,10,0,4,0,true,q,false,false,0.0-2.0-0.49-0.443-3.443,0,1,1,81,false,stim,false,0,1415.800000011921,0,1,2,97117,WMM2,1184065,false,true,1492,image-keyboard-response,39
true,10,0,4,0,true,q,false,true,0.0-2.0-0.49-0.444-3.444,0,1,1,81,false,stim,false,0,721.3999999761581,0,0,0,97117,WMM2,1186295,false,false,1495,image-keyboard-response,40
true,10,0,4,0,true,q,false,true,0.0-2.0-0.49-0.445-3.445,0,1,1,81,false,stim,false,0,534.1999999880791,0,0,0,97117,WMM2,1188334,false,false,1498,image-keyboard-response,41
true,10,1,4,1,true,z,false,false,0.0-2.0-0.49-0.446-3.446,0,1,1,90,false,stim,false,1,1342.9000000357628,0,1,1,97117,WMM2,1191192,false,true,1501,image-keyboard-response,42
true,10,0,4,0,true,q,false,true,0.0-2.0-0.49-0.447-3.447,0,1,1,81,false,stim,false,0,739.8999999761581,0,1,2,97117,WMM2,1193439,false,false,1504,image-keyboard-response,43
true,10,0,4,0,true,q,false,true,0.0-2.0-0.49-0.448-3.448,0,1,1,81,false,stim,false,0,743.0,0,1,2,97117,WMM2,1195690,false,false,1507,image-keyboard-response,44
true,11,0,3,1,false,z,true,false,0.0-2.0-0.49-0.449-3.449,0,1,1,81,true,stim,false,1,1435.3999999761581,0,1,1,97117,WMM2,1198633,false,false,1510,image-keyboard-response,1
true,11,0,3,2,false,d,false,false,0.0-2.0-0.50-0.450-3.450,0,1,1,81,false,stim,true,0,510.5,0,0,0,97117,WMM2,1200653,false,false,1513,image-keyboard-response,2
true,11,0,3,0,true,q,false,false,0.0-2.0-0.50-0.451-3.451,0,1,1,81,false,stim,false,0,823.6999999880791,0,1,2,97117,WMM2,1202986,false,true,1516,image-keyboard-response,3
true,11,2,3,0,false,q,true,false,0.0-2.0-0.50-0.452-3.452,0,1,1,68,false,stim,false,0,1021.3999999761581,0,1,2,97117,WMM2,1205515,false,false,1519,image-keyboard-response,4
true,11,1,3,1,true,z,false,true,0.0-2.0-0.50-0.453-3.453,0,1,1,90,false,stim,false,1,1155.0,0,1,1,97117,WMM2,1208178,false,false,1522,image-keyboard-response,5
true,11,1,3,0,false,q,true,false,0.0-2.0-0.50-0.454-3.454,0,1,1,90,false,stim,false,0,703.8000000119209,0,1,2,97117,WMM2,1210390,false,false,1525,image-keyboard-response,6
true,11,0,3,2,false,d,false,false,0.0-2.0-0.50-0.455-3.455,0,1,1,81,false,stim,true,0,683.4000000357628,0,0,0,97117,WMM2,1212582,false,false,1528,image-keyboard-response,7
true,11,2,3,2,true,d,false,true,0.0-2.0-0.50-0.456-3.456,0,1,1,68,false,stim,false,0,842.1999999880791,0,0,0,97117,WMM2,1214930,false,false,1531,image-keyboard-response,8
true,11,1,3,1,true,z,false,true,0.0-2.0-0.50-0.457-3.457,0,1,1,90,false,stim,false,1,584.1000000238419,0,1,1,97117,WMM2,1217022,false,false,1534,image-keyboard-response,9
true,11,1,3,1,true,z,false,true,0.0-2.0-0.50-0.458-3.458,0,1,1,90,false,stim,false,1,402.5,0,1,1,97117,WMM2,1218934,false,false,1537,image-keyboard-response,10
true,11,2,3,0,false,q,true,false,0.0-2.0-0.51-0.459-3.459,0,1,1,68,false,stim,false,0,612.0999999642372,0,1,2,97117,WMM2,1221053,false,false,1540,image-keyboard-response,11
true,11,1,3,1,true,z,false,false,0.0-2.0-0.51-0.460-3.460,0,1,1,90,false,stim,false,1,553.5,0,1,1,97117,WMM2,1223115,false,true,1543,image-keyboard-response,12
true,11,1,3,0,false,q,true,false,0.0-2.0-0.51-0.461-3.461,0,1,1,90,false,stim,false,0,1029.800000011921,0,1,2,97117,WMM2,1225654,false,false,1546,image-keyboard-response,13
true,11,0,3,1,false,z,true,false,0.0-2.0-0.51-0.462-3.462,0,1,1,81,false,stim,false,1,776.6000000238419,0,1,1,97117,WMM2,1227939,false,false,1549,image-keyboard-response,14
true,11,1,3,2,false,d,true,false,0.0-2.0-0.51-0.463-3.463,0,1,1,90,false,stim,false,0,1023.1999999880791,0,0,0,97117,WMM2,1230471,false,false,1552,image-keyboard-response,15
true,11,0,3,2,false,d,false,false,0.0-2.0-0.51-0.464-3.464,0,1,1,81,false,stim,true,0,398.30000001192093,0,0,0,97117,WMM2,1232378,false,false,1555,image-keyboard-response,16
true,11,0,3,1,false,z,true,false,0.0-2.0-0.51-0.465-3.465,0,1,1,81,false,stim,false,1,1007.5999999642372,0,1,1,97117,WMM2,1234896,false,false,1558,image-keyboard-response,17
true,11,2,3,2,true,d,false,true,0.0-2.0-0.51-0.466-3.466,0,1,1,68,false,stim,false,0,495.0,0,0,0,97117,WMM2,1236899,false,false,1561,image-keyboard-response,18
true,11,2,3,0,false,q,true,true,0.0-2.0-0.51-0.467-3.467,0,1,1,68,false,stim,false,0,782.9000000357628,0,1,2,97117,WMM2,1239189,false,true,1564,image-keyboard-response,19
true,11,2,3,0,false,q,true,true,0.0-2.0-0.52-0.468-3.468,0,1,1,68,false,stim,false,0,509.5999999642372,0,1,2,97117,WMM2,1241209,false,true,1567,image-keyboard-response,20
true,11,2,3,1,false,z,true,false,0.0-2.0-0.52-0.469-3.469,0,1,1,68,false,stim,false,1,1080.699999988079,0,1,1,97117,WMM2,1243802,false,false,1570,image-keyboard-response,21
true,11,2,3,0,false,q,true,false,0.0-2.0-0.52-0.470-3.470,0,1,1,68,false,stim,false,0,443.60000002384186,0,1,2,97117,WMM2,1245765,false,false,1573,image-keyboard-response,22
true,11,0,3,1,false,z,true,false,0.0-2.0-0.52-0.471-3.471,0,1,1,81,false,stim,false,1,894.9000000357628,0,1,1,97117,WMM2,1248172,false,false,1576,image-keyboard-response,23
true,11,2,3,2,true,d,false,true,0.0-2.0-0.52-0.472-3.472,0,1,1,68,false,stim,false,0,599.0999999642372,0,0,0,97117,WMM2,1250284,false,false,1579,image-keyboard-response,24
true,11,1,3,1,true,z,false,true,0.0-2.0-0.52-0.473-3.473,0,1,1,90,false,stim,false,1,721.7999999523163,0,1,1,97117,WMM2,1252519,false,false,1582,image-keyboard-response,25
true,11,2,3,2,true,d,false,true,0.0-2.0-0.52-0.474-3.474,0,1,1,68,false,stim,false,0,681.1999999880791,0,0,0,97117,WMM2,1254714,false,false,1585,image-keyboard-response,26
true,11,2,3,2,true,d,false,true,0.0-2.0-0.52-0.475-3.475,0,1,1,68,false,stim,false,0,544.6000000238419,0,0,0,97117,WMM2,1256771,false,false,1588,image-keyboard-response,27
true,11,1,3,0,false,q,true,false,0.0-2.0-0.52-0.476-3.476,0,1,1,90,false,stim,false,0,1702.0,0,1,2,97117,WMM2,1259985,false,false,1591,image-keyboard-response,28
true,11,1,3,1,true,z,false,true,0.0-2.0-0.53-0.477-3.477,0,1,1,90,false,stim,false,1,750.6999999880791,0,1,1,97117,WMM2,1262251,false,false,1594,image-keyboard-response,29
true,11,2,3,0,false,q,true,false,0.0-2.0-0.53-0.478-3.478,0,1,1,68,false,stim,false,0,1131.699999988079,0,1,2,97117,WMM2,1264895,false,false,1597,image-keyboard-response,30
true,11,0,3,0,true,q,false,true,0.0-2.0-0.53-0.479-3.479,0,1,1,81,false,stim,false,0,544.6000000238419,0,1,2,97117,WMM2,1266952,false,false,1600,image-keyboard-response,31
true,11,2,3,2,true,d,false,true,0.0-2.0-0.53-0.480-3.480,0,1,1,68,false,stim,false,0,509.5999999642372,0,0,0,97117,WMM2,1268978,false,false,1603,image-keyboard-response,32
true,11,1,3,1,true,z,false,true,0.0-2.0-0.53-0.481-3.481,0,1,1,90,false,stim,false,1,363.2000000476837,0,1,1,97117,WMM2,1270855,false,false,1606,image-keyboard-response,33
true,11,0,3,0,true,q,false,true,0.0-2.0-0.53-0.482-3.482,0,1,1,81,false,stim,false,0,341.19999998807907,0,1,2,97117,WMM2,1272708,false,false,1609,image-keyboard-response,34
true,11,2,3,2,true,d,false,true,0.0-2.0-0.53-0.483-3.483,0,1,1,68,false,stim,false,0,363.5,0,1,0,97117,WMM2,1274584,false,false,1612,image-keyboard-response,35
true,11,2,3,2,true,d,false,true,0.0-2.0-0.53-0.484-3.484,0,1,1,68,false,stim,false,0,514.8000000119209,0,1,0,97117,WMM2,1276609,false,false,1615,image-keyboard-response,36
true,11,1,3,1,true,z,false,true,0.0-2.0-0.53-0.485-3.485,0,1,1,90,false,stim,false,1,911.6999999880791,0,0,1,97117,WMM2,1279033,false,false,1618,image-keyboard-response,37
true,11,2,3,2,true,d,false,true,0.0-2.0-0.54-0.486-3.486,0,1,1,68,false,stim,false,0,705.3000000119209,0,1,0,97117,WMM2,1281247,false,false,1621,image-keyboard-response,38
true,11,2,3,2,true,d,false,false,0.0-2.0-0.54-0.487-3.487,0,1,1,68,false,stim,false,0,413.5,0,1,0,97117,WMM2,1283171,false,true,1624,image-keyboard-response,39
true,11,1,3,1,true,z,false,false,0.0-2.0-0.54-0.488-3.488,0,1,1,90,false,stim,false,1,441.89999997615814,0,0,1,97117,WMM2,1285121,false,true,1627,image-keyboard-response,40
true,11,0,3,0,true,q,false,true,0.0-2.0-0.54-0.489-3.489,0,1,1,81,false,stim,false,0,591.1000000238419,0,1,2,97117,WMM2,1287221,false,false,1630,image-keyboard-response,41
true,11,0,3,1,false,z,true,false,0.0-2.0-0.54-0.490-3.490,0,1,1,81,false,stim,false,1,972.5999999642372,0,0,1,97117,WMM2,1289701,false,false,1633,image-keyboard-response,42
true,11,0,3,0,true,q,false,true,0.0-2.0-0.54-0.491-3.491,0,1,1,81,false,stim,false,0,1097.699999988079,0,1,2,97117,WMM2,1292310,false,false,1636,image-keyboard-response,43
true,11,0,3,0,true,q,false,true,0.0-2.0-0.54-0.492-3.492,0,1,1,81,false,stim,false,0,564.9000000357628,0,1,2,97117,WMM2,1294384,false,false,1639,image-keyboard-response,44
true,12,2,3,2,true,d,false,true,0.0-2.0-0.54-0.493-3.493,1,0,1,68,true,stim,false,2,533.8000000119209,0,1,0,97117,WMM2,1296427,false,false,1642,image-keyboard-response,1
true,12,2,3,0,false,q,true,true,0.0-2.0-0.54-0.494-3.494,1,0,1,68,false,stim,false,1,1495.0,0,0,1,97117,WMM2,1299433,false,true,1645,image-keyboard-response,2
true,12,0,3,0,true,q,false,true,0.0-2.0-0.55-0.495-3.495,1,0,1,81,false,stim,false,0,320.69999998807907,0,1,2,97117,WMM2,1301264,false,false,1648,image-keyboard-response,3
true,12,2,3,0,false,q,true,false,0.0-2.0-0.55-0.496-3.496,1,0,1,68,false,stim,false,1,370.2000000476837,0,0,1,97117,WMM2,1303142,false,false,1651,image-keyboard-response,4
true,12,2,3,0,false,q,true,false,0.0-2.0-0.55-0.497-3.497,1,0,1,68,false,stim,false,0,459.10000002384186,0,1,2,97117,WMM2,1305108,false,false,1654,image-keyboard-response,5
true,12,2,3,0,false,q,true,true,0.0-2.0-0.55-0.498-3.498,1,0,1,68,false,stim,false,1,691.6000000238419,0,0,1,97117,WMM2,1307308,false,true,1657,image-keyboard-response,6
true,12,1,3,2,false,d,true,true,0.0-2.0-0.55-0.499-3.499,1,0,1,90,false,stim,false,2,1098.7000000476837,0,1,0,97117,WMM2,1309932,false,true,1660,image-keyboard-response,7
true,12,0,3,0,true,q,false,true,0.0-2.0-0.55-0.500-3.500,1,0,1,81,false,stim,false,0,835.9000000357628,0,1,2,97117,WMM2,1312276,false,false,1663,image-keyboard-response,8
true,12,1,3,2,false,d,true,false,0.0-2.0-0.55-0.501-3.501,1,0,1,90,false,stim,false,2,531.8000000119209,0,1,0,97117,WMM2,1314317,false,false,1666,image-keyboard-response,9
true,12,1,3,2,false,d,true,false,0.0-2.0-0.55-0.502-3.502,1,0,1,90,false,stim,false,2,1250.800000011921,0,1,0,97117,WMM2,1317076,false,false,1669,image-keyboard-response,10
true,12,2,3,0,false,q,true,false,0.0-2.0-0.55-0.503-3.503,1,0,1,68,false,stim,false,1,1192.0,0,0,1,97117,WMM2,1319777,false,false,1672,image-keyboard-response,11
true,12,0,3,0,true,q,false,true,0.0-2.0-0.56-0.504-3.504,1,0,1,81,false,stim,false,0,490.30000001192093,0,1,2,97117,WMM2,1321777,false,false,1675,image-keyboard-response,12
true,12,0,3,2,false,d,true,false,0.0-2.0-0.56-0.505-3.505,1,0,1,81,false,stim,false,2,478.0,0,1,0,97117,WMM2,1323764,false,false,1678,image-keyboard-response,13
true,12,2,3,2,true,d,false,false,0.0-2.0-0.56-0.506-3.506,1,0,1,68,false,stim,false,2,555.0999999642372,0,1,0,97117,WMM2,1325829,false,true,1681,image-keyboard-response,14
true,12,1,3,2,false,d,true,false,0.0-2.0-0.56-0.507-3.507,1,0,1,90,false,stim,false,2,401.5999999642372,0,1,0,97117,WMM2,1327738,false,false,1684,image-keyboard-response,15
true,12,1,3,0,false,q,false,true,0.0-2.0-0.56-0.508-3.508,1,0,1,90,false,stim,true,1,1163.3999999761581,0,0,1,97117,WMM2,1330408,false,true,1687,image-keyboard-response,16
true,12,0,3,0,true,q,false,true,0.0-2.0-0.56-0.509-3.509,1,0,1,81,false,stim,false,0,787.0,0,1,2,97117,WMM2,1332713,false,false,1690,image-keyboard-response,17
true,12,0,3,0,true,q,false,true,0.0-2.0-0.56-0.510-3.510,1,0,1,81,false,stim,false,0,586.0,0,1,2,97117,WMM2,1334808,false,false,1693,image-keyboard-response,18
true,12,1,3,0,false,q,false,false,0.0-2.0-0.56-0.511-3.511,1,0,1,90,false,stim,true,1,424.2999999523163,0,0,1,97117,WMM2,1336741,false,false,1696,image-keyboard-response,19
true,12,1,3,0,false,q,false,false,0.0-2.0-0.56-0.512-3.512,1,0,1,90,false,stim,true,1,400.10000002384186,0,0,1,97117,WMM2,1338652,false,false,1699,image-keyboard-response,20
true,12,0,3,2,false,d,true,false,0.0-2.0-0.57-0.513-3.513,1,0,1,81,false,stim,false,2,939.8999999761581,0,1,0,97117,WMM2,1341113,false,false,1702,image-keyboard-response,21
true,12,0,3,0,true,q,false,true,0.0-2.0-0.57-0.514-3.514,1,0,1,81,false,stim,false,0,792.5,0,1,2,97117,WMM2,1343419,false,false,1705,image-keyboard-response,22
true,12,2,3,0,false,q,true,false,0.0-2.0-0.57-0.515-3.515,1,0,1,68,false,stim,false,1,635.8000000119209,0,0,1,97117,WMM2,1345570,false,false,1708,image-keyboard-response,23
true,12,2,3,2,true,d,false,true,0.0-2.0-0.57-0.516-3.516,1,0,1,68,false,stim,false,2,1438.800000011921,0,1,0,97117,WMM2,1348521,false,false,1711,image-keyboard-response,24
true,12,0,3,0,true,q,false,true,0.0-2.0-0.57-0.517-3.517,1,0,1,81,false,stim,false,0,409.69999998807907,0,1,2,97117,WMM2,1350445,false,false,1714,image-keyboard-response,25
true,12,0,3,0,true,q,false,false,0.0-2.0-0.57-0.518-3.518,1,0,1,81,false,stim,false,0,797.0,0,1,2,97117,WMM2,1352757,false,true,1717,image-keyboard-response,26
true,12,2,3,0,false,q,true,true,0.0-2.0-0.57-0.519-3.519,1,0,1,68,false,stim,false,1,819.5999999642372,0,0,1,97117,WMM2,1355102,false,true,1720,image-keyboard-response,27
true,12,2,3,2,true,d,false,true,0.0-2.0-0.57-0.520-3.520,1,0,1,68,false,stim,false,2,578.8999999761581,0,1,0,97117,WMM2,1357195,false,false,1723,image-keyboard-response,28
true,12,2,3,0,false,q,true,false,0.0-2.0-0.57-0.521-3.521,1,0,1,68,false,stim,false,1,459.10000002384186,0,0,1,97117,WMM2,1359166,false,false,1726,image-keyboard-response,29
true,12,2,3,2,true,d,false,false,0.0-2.0-0.58-0.522-3.522,1,0,1,68,false,stim,false,2,397.19999998807907,0,1,0,97117,WMM2,1361077,false,true,1729,image-keyboard-response,30
true,12,0,3,0,true,q,false,true,0.0-2.0-0.58-0.523-3.523,1,0,1,81,false,stim,false,0,588.0,0,1,2,97117,WMM2,1363176,false,false,1732,image-keyboard-response,31
true,12,0,3,0,true,q,false,true,0.0-2.0-0.58-0.524-3.524,1,0,1,81,false,stim,false,1,1735.8999999761581,0,0,1,97117,WMM2,1366424,false,false,1735,image-keyboard-response,32
true,12,0,3,0,true,q,false,true,0.0-2.0-0.58-0.525-3.525,1,0,1,81,false,stim,false,1,381.10000002384186,0,0,1,97117,WMM2,1368314,false,false,1738,image-keyboard-response,33
true,12,0,3,0,true,q,false,true,0.0-2.0-0.58-0.526-3.526,1,0,1,81,false,stim,false,1,361.60000002384186,0,1,1,97117,WMM2,1370190,false,false,1741,image-keyboard-response,34
true,12,0,3,0,true,q,false,true,0.0-2.0-0.58-0.527-3.527,1,0,1,81,false,stim,false,0,405.0999999642372,0,1,2,97117,WMM2,1372101,false,false,1744,image-keyboard-response,35
true,12,1,3,2,false,d,true,false,0.0-2.0-0.58-0.528-3.528,1,0,1,90,false,stim,false,2,932.7000000476837,0,0,0,97117,WMM2,1374543,false,false,1747,image-keyboard-response,36
true,12,0,3,0,true,q,false,true,0.0-2.0-0.58-0.529-3.529,1,0,1,81,false,stim,false,0,629.6999999880791,0,1,2,97117,WMM2,1376682,false,false,1750,image-keyboard-response,37
true,12,0,3,2,false,d,true,false,0.0-2.0-0.58-0.530-3.530,1,0,1,81,false,stim,false,2,566.3000000119209,0,0,0,97117,WMM2,1378758,false,false,1753,image-keyboard-response,38
true,12,2,3,0,false,q,true,false,0.0-2.0-0.59-0.531-3.531,1,0,1,68,false,stim,false,0,1452.4000000357628,0,1,2,97117,WMM2,1381725,false,false,1756,image-keyboard-response,39
true,12,0,3,2,false,d,true,false,0.0-2.0-0.59-0.532-3.532,1,0,1,81,false,stim,false,2,421.7000000476837,0,0,0,97117,WMM2,1383653,false,false,1759,image-keyboard-response,40
true,12,1,3,2,false,d,true,false,0.0-2.0-0.59-0.533-3.533,1,0,1,90,false,stim,false,2,288.10000002384186,0,0,0,97117,WMM2,1385451,false,false,1762,image-keyboard-response,41
true,12,2,3,0,false,q,true,true,0.0-2.0-0.59-0.534-3.534,1,0,1,68,false,stim,false,1,254.0,0,1,1,97117,WMM2,1387214,false,true,1765,image-keyboard-response,42
true,12,2,3,0,false,q,true,false,0.0-2.0-0.59-0.535-3.535,1,0,1,68,false,stim,false,0,665.6999999880791,0,1,2,97117,WMM2,1389389,false,false,1768,image-keyboard-response,43
true,13,0,3,1,false,z,true,true,0.0-2.0-0.59-0.536-3.536,0,1,1,81,true,stim,false,2,665.3999999761581,0,0,0,97117,WMM2,1391564,false,true,1771,image-keyboard-response,1
true,13,1,3,0,false,q,true,false,0.0-2.0-0.59-0.537-3.537,0,1,1,90,false,stim,false,0,879.8999999761581,0,1,1,97117,WMM2,1393952,false,false,1774,image-keyboard-response,2
true,13,0,3,0,true,q,false,true,0.0-2.0-0.59-0.538-3.538,0,1,1,81,false,stim,false,0,414.0,0,1,1,97117,WMM2,1395875,false,false,1777,image-keyboard-response,3
true,13,0,3,0,true,q,false,true,0.0-2.0-0.59-0.539-3.539,0,1,1,81,false,stim,false,0,386.89999997615814,0,1,2,97117,WMM2,1397770,false,false,1780,image-keyboard-response,4
true,13,0,3,0,true,q,false,true,0.0-2.0-0.60-0.540-3.540,0,1,1,81,false,stim,false,0,310.0,0,1,1,97117,WMM2,1399589,false,false,1783,image-keyboard-response,5
true,13,0,3,0,true,q,false,true,0.0-2.0-0.60-0.541-3.541,0,1,1,81,false,stim,false,0,289.30000001192093,0,1,2,97117,WMM2,1401389,false,false,1786,image-keyboard-response,6
true,13,0,3,0,true,q,false,true,0.0-2.0-0.60-0.542-3.542,0,1,1,81,false,stim,false,0,290.39999997615814,0,1,2,97117,WMM2,1403188,false,false,1789,image-keyboard-response,7
true,13,0,3,1,false,z,true,true,0.0-2.0-0.60-0.543-3.543,0,1,1,81,false,stim,false,2,274.30000001192093,0,0,0,97117,WMM2,1404972,false,true,1792,image-keyboard-response,8
true,13,0,3,0,true,q,false,true,0.0-2.0-0.60-0.544-3.544,0,1,1,81,false,stim,false,0,249.5,0,1,2,97117,WMM2,1406732,false,false,1795,image-keyboard-response,9
true,13,0,3,1,false,z,true,false,0.0-2.0-0.60-0.545-3.545,0,1,1,81,false,stim,false,2,252.89999997615814,0,0,0,97117,WMM2,1408495,false,false,1798,image-keyboard-response,10
true,13,0,3,1,false,z,true,false,0.0-2.0-0.60-0.546-3.546,0,1,1,81,false,stim,false,2,93.59999996423721,0,0,0,97117,WMM2,1410107,false,false,1801,image-keyboard-response,11
true,13,0,3,0,true,q,false,false,0.0-2.0-0.60-0.547-3.547,0,1,1,81,false,stim,false,0,513.5999999642372,0,1,1,97117,WMM2,1412132,false,true,1804,image-keyboard-response,12
true,13,0,3,0,true,q,false,true,0.0-2.0-0.60-0.548-3.548,0,1,1,81,false,stim,false,0,348.0,0,1,1,97117,WMM2,1413988,false,false,1807,image-keyboard-response,13
true,13,0,3,1,false,z,true,true,0.0-2.0-0.61-0.549-3.549,0,1,1,81,false,stim,false,2,330.80000001192093,0,0,0,97117,WMM2,1415828,false,true,1810,image-keyboard-response,14
true,13,0,3,0,true,q,false,false,0.0-2.0-0.61-0.550-3.550,0,1,1,81,false,stim,false,0,513.1999999880791,0,1,1,97117,WMM2,1417851,false,true,1813,image-keyboard-response,15
true,13,0,3,0,true,q,false,true,0.0-2.0-0.61-0.551-3.551,0,1,1,81,false,stim,false,0,291.0,0,1,2,97117,WMM2,1419651,false,false,1816,image-keyboard-response,16
true,13,0,3,1,false,z,true,false,0.0-2.0-0.61-0.552-3.552,0,1,1,81,false,stim,false,2,272.0,0,0,0,97117,WMM2,1421432,false,false,1819,image-keyboard-response,17
true,13,0,3,0,true,q,false,false,0.0-2.0-0.61-0.553-3.553,0,1,1,81,false,stim,false,0,120.30000001192093,0,1,1,97117,WMM2,1423063,false,true,1822,image-keyboard-response,18
true,13,1,3,0,false,q,true,false,0.0-2.0-0.61-0.554-3.554,0,1,1,90,false,stim,false,0,629.0999999642372,0,1,1,97117,WMM2,1425201,false,false,1825,image-keyboard-response,19
true,13,0,3,1,false,z,true,false,0.0-2.0-0.61-0.555-3.555,0,1,1,81,false,stim,false,2,537.3000000119209,0,0,0,97117,WMM2,1427247,false,false,1828,image-keyboard-response,20
true,13,0,3,0,true,q,false,true,0.0-2.0-0.61-0.556-3.556,0,1,1,81,false,stim,false,0,602.5,0,1,2,97117,WMM2,1429362,false,false,1831,image-keyboard-response,21
true,13,0,3,0,true,q,false,true,0.0-2.0-0.61-0.557-3.557,0,1,1,81,false,stim,false,0,431.5,0,1,2,97117,WMM2,1431313,false,false,1834,image-keyboard-response,22
true,13,0,3,0,true,q,false,true,0.0-2.0-0.62-0.558-3.558,0,1,1,81,false,stim,false,0,342.2000000476837,0,1,2,97117,WMM2,1433169,false,false,1837,image-keyboard-response,23
true,13,2,3,0,false,q,true,false,0.0-2.0-0.62-0.559-3.559,0,1,1,68,false,stim,false,0,642.0999999642372,0,1,1,97117,WMM2,1435326,false,false,1840,image-keyboard-response,24
true,13,0,3,1,false,z,true,false,0.0-2.0-0.62-0.560-3.560,0,1,1,81,false,stim,false,2,971.5999999642372,0,0,0,97117,WMM2,1437808,false,false,1843,image-keyboard-response,25
true,13,1,3,0,false,q,true,false,0.0-2.0-0.62-0.561-3.561,0,1,1,90,false,stim,false,0,221.39999997615814,0,1,1,97117,WMM2,1439544,false,false,1846,image-keyboard-response,26
true,13,0,3,1,false,z,true,true,0.0-2.0-0.62-0.562-3.562,0,1,1,81,false,stim,false,2,480.60000002384186,0,0,0,97117,WMM2,1441532,false,true,1849,image-keyboard-response,27
true,13,0,3,0,true,q,false,true,0.0-2.0-0.62-0.563-3.563,0,1,1,81,false,stim,false,0,305.0999999642372,0,1,1,97117,WMM2,1443350,false,false,1852,image-keyboard-response,28
true,13,0,3,0,true,q,false,true,0.0-2.0-0.62-0.564-3.564,0,1,1,81,false,stim,false,0,380.39999997615814,0,1,2,97117,WMM2,1445244,false,false,1855,image-keyboard-response,29
true,13,0,3,1,false,z,true,false,0.0-2.0-0.62-0.565-3.565,0,1,1,81,false,stim,false,2,286.10000002384186,0,0,0,97117,WMM2,1447044,false,false,1858,image-keyboard-response,30
true,13,0,3,0,true,q,false,true,0.0-2.0-0.62-0.566-3.566,0,1,1,81,false,stim,false,0,267.10000002384186,0,1,2,97117,WMM2,1448825,false,false,1861,image-keyboard-response,31
true,13,0,3,0,true,q,false,true,0.0-2.0-0.63-0.567-3.567,0,1,1,81,false,stim,false,0,365.10000002384186,0,1,2,97117,WMM2,1450700,false,false,1864,image-keyboard-response,32
true,13,0,3,0,true,q,false,true,0.0-2.0-0.63-0.568-3.568,0,1,1,81,false,stim,false,0,323.4000000357628,0,1,2,97117,WMM2,1452538,false,false,1867,image-keyboard-response,33
true,13,1,3,1,true,z,false,true,0.0-2.0-0.63-0.569-3.569,0,1,1,90,false,stim,false,2,1416.5,0,0,0,97117,WMM2,1455469,false,false,1870,image-keyboard-response,34
true,13,1,3,0,false,q,true,false,0.0-2.0-0.63-0.570-3.570,0,1,1,90,false,stim,false,0,1224.5999999642372,0,1,1,97117,WMM2,1458206,false,false,1873,image-keyboard-response,35
true,13,1,3,1,true,z,false,true,0.0-2.0-0.63-0.571-3.571,0,1,1,90,false,stim,false,2,415.9000000357628,0,0,0,97117,WMM2,1460134,false,false,1876,image-keyboard-response,36
true,13,1,3,0,false,q,true,false,0.0-2.0-0.63-0.572-3.572,0,1,1,90,false,stim,false,0,453.89999997615814,0,1,1,97117,WMM2,1462100,false,false,1879,image-keyboard-response,37
true,13,1,3,1,true,z,false,true,0.0-2.0-0.63-0.573-3.573,0,1,1,90,false,stim,false,2,375.80000001192093,0,0,0,97117,WMM2,1463993,false,false,1882,image-keyboard-response,38
true,13,2,3,0,false,q,true,false,0.0-2.0-0.63-0.574-3.574,0,1,1,68,false,stim,false,0,369.10000002384186,0,1,1,97117,WMM2,1465869,false,false,1885,image-keyboard-response,39
true,13,0,3,0,true,q,false,false,0.0-2.0-0.63-0.575-3.575,0,1,1,81,false,stim,false,0,547.8000000119209,0,1,2,97117,WMM2,1467932,false,true,1888,image-keyboard-response,40
true,13,2,3,0,false,q,true,false,0.0-2.0-0.64-0.576-3.576,0,1,1,68,false,stim,false,0,910.3999999761581,0,1,2,97117,WMM2,1470357,false,false,1891,image-keyboard-response,41
true,13,0,3,0,true,q,false,true,0.0-2.0-0.64-0.577-3.577,0,1,1,81,false,stim,false,0,282.30000001192093,0,1,1,97117,WMM2,1472149,false,false,1894,image-keyboard-response,42
true,13,0,3,0,true,q,false,true,0.0-2.0-0.64-0.578-3.578,0,1,1,81,false,stim,false,0,609.8999999761581,0,1,1,97117,WMM2,1474269,false,false,1897,image-keyboard-response,43
true,13,1,3,1,true,z,false,true,0.0-2.0-0.64-0.579-3.579,0,1,1,90,false,stim,false,2,490.5,0,0,0,97117,WMM2,1476275,false,false,1900,image-keyboard-response,44
true,13,0,3,0,true,q,false,true,0.0-2.0-0.64-0.580-3.580,0,1,1,81,false,stim,false,0,897.1000000238419,0,1,2,97117,WMM2,1478699,false,false,1903,image-keyboard-response,45
true,13,0,3,0,true,q,false,true,0.0-2.0-0.64-0.581-3.581,0,1,1,81,false,stim,false,0,493.2000000476837,0,1,1,97117,WMM2,1480702,false,false,1906,image-keyboard-response,46
true,13,0,3,0,true,q,false,true,0.0-2.0-0.64-0.582-3.582,0,1,1,81,false,stim,false,0,358.5,0,1,2,97117,WMM2,1482575,false,false,1909,image-keyboard-response,47
true,13,1,3,1,true,z,false,true,0.0-2.0-0.64-0.583-3.583,0,1,1,90,false,stim,false,2,624.9000000357628,0,1,0,97117,WMM2,1484713,false,false,1912,image-keyboard-response,48
true,13,1,3,1,true,z,false,true,0.0-2.0-0.64-0.584-3.584,0,1,1,90,false,stim,false,2,401.89999997615814,0,1,0,97117,WMM2,1486625,false,false,1915,image-keyboard-response,49
true,13,1,3,0,false,q,true,false,0.0-2.0-0.65-0.585-3.585,0,1,1,90,false,stim,false,0,402.4000000357628,0,1,1,97117,WMM2,1488537,false,false,1918,image-keyboard-response,50
true,13,1,3,1,true,z,false,true,0.0-2.0-0.65-0.586-3.586,0,1,1,90,false,stim,false,2,494.0,0,1,0,97117,WMM2,1490544,false,false,1921,image-keyboard-response,51
true,13,0,3,0,true,q,false,false,0.0-2.0-0.65-0.587-3.587,0,1,1,81,false,stim,false,0,554.5,0,1,1,97117,WMM2,1492609,false,true,1924,image-keyboard-response,52
true,13,0,3,0,true,q,false,true,0.0-2.0-0.65-0.588-3.588,0,1,1,81,false,stim,false,0,400.4000000357628,0,1,1,97117,WMM2,1494518,false,false,1927,image-keyboard-response,53
true,13,0,3,0,true,q,false,true,0.0-2.0-0.65-0.589-3.589,0,1,1,81,false,stim,false,0,274.10000002384186,0,0,2,97117,WMM2,1496300,false,false,1930,image-keyboard-response,54
true,13,1,3,1,true,z,false,true,0.0-2.0-0.65-0.590-3.590,0,1,1,90,false,stim,false,2,730.3000000119209,0,1,0,97117,WMM2,1498541,false,false,1933,image-keyboard-response,55
true,13,0,3,0,true,q,false,true,0.0-2.0-0.65-0.591-3.591,0,1,1,81,false,stim,false,0,489.60000002384186,0,0,2,97117,WMM2,1500537,false,false,1936,image-keyboard-response,56
true,13,1,3,1,true,z,false,true,0.0-2.0-0.65-0.592-3.592,0,1,1,90,false,stim,false,2,590.4000000357628,0,1,0,97117,WMM2,1502639,false,false,1939,image-keyboard-response,57
false,14,-1,0,0,false,q,true,false,0.0-2.0-0.65-0.593-3.593,1,1,0,,true,stim,false,0,,0,0,2,97117,WMM2,1627548,false,false,2062,image-keyboard-response,1
false,14,-1,0,1,false,z,true,false,0.0-2.0-0.66-0.594-3.594,1,1,0,,false,stim,false,1,,0,1,0,97117,WMM2,1632060,false,false,2065,image-keyboard-response,2
